"audio","background","canvas_backend","central_fixation","cfg_temp_dir","clock_backend","color_backend","condition","config_path","count_calibration_pygaze_init","count_check_group_selection","count_define_logging","count_experiment","count_fixation","count_instruction_screen","count_latin_square_group_select","count_logsleep","count_new_logger","count_outro_screen","count_pause","count_preprocess_videos","count_preview","count_pygaze_start_recording","count_pygaze_stop_recording","count_readme","count_sentence","count_trial_loop","count_trial_sequence","count_utils","d","d_to_continue","datetime","delay_logsleep","description","disable_garbage_collection","duration","end_time","experiment_file","experiment_path","fixdot_color","fixdot_posx","fixdot_posy","fixdot_style","fixtime","font_bold","font_family","font_italic","font_size","font_underline","foreground","form_clicks","fullscreen","height","index","inst","inst_cnt","inst_font","inst_font_col","inst_font_size","inst_posx","inst_posy","key","keyboard_backend","latin_group","latin_group_name","live_row","live_row_trial_loop","location_cue","logfile","minpause","mouse_backend","opensesame_codename","opensesame_version","pause_cntr","pause_font","pause_font_col","pause_font_size","pause_posx","pause_posy","pause_text","pausetimeout","posx_sstimBL","posx_sstimBR","posx_sstimTL","posx_sstimTR","posy_sstimBL","posy_sstimBR","posy_sstimTL","posy_sstimTR","prevtime","repeat_cycle","round_decimals","sampler_backend","sentence","sentenceoffset","sound_buf_size","sound_channels","sound_duration_ms","sound_freq","sound_sample_size","src","sstimBL","sstimBR","sstimTL","sstimTR","sstim_bl","sstim_br","sstim_tl","sstim_tr","start","stimulus_name","subject_nr","subject_parity","target_cue_timing","target_pos","tcur","temp_dir","time_calibration_pygaze_init","time_check_group_selection","time_define_logging","time_experiment","time_fixation","time_instruction_screen","time_latin_square_group_select","time_logsleep","time_new_logger","time_outro_screen","time_pause","time_preprocess_videos","time_preview","time_pygaze_start_recording","time_pygaze_stop_recording","time_readme","time_sentence","time_trial_loop","time_trial_sequence","time_utils","title","tmin","verb_cue","verb_cue_timing","video_file","width"
"08_letter.ogg","white","legacy","True","C:\Users\yarbus\Desktop\Team Cat\visual-word-paradigm\temp","legacy","legacy","motion","C:\Users\yarbus\Desktop\Team Cat\visual-word-paradigm\config.yml","0","0","0","0","0","0","0","0","0","0","0","0","0","0","0","0","0","0","0","0","39.40793190615309","50","Fri Jul 12 13:57:14 2024","20","The main experiment item","False","3740.000009536743","214402","pygame-experiment-visual-world-paradigm.osexp","C:\Users\yarbus\Desktop\Team Cat\visual-word-paradigm","black","0","0","medium-open","1000","False","mono","False","32","no","black","no","yes","1080","8","Look at the screen and listen carefully. press any key to continue","True","mono","black","32","None","None","c","legacy","-1","chicken","0","0","desk","C:/Users/yarbus/Desktop/Team Cat/visual-word-paradigm/trials/subject-2.csv","2000","legacy","Melodramatic Milgram","4.0.13","False","mono","black","32","None","380","Pause. Look at the fixation dot in order to continue.","30000","-480","480","-480","480","270","270","-270","-270","1000","0","2","legacy","At her desk, the girl wrote a letter.","500","1024","2","3.240000009536743","48000","-16","C:\Users\yarbus\AppData\Local\Temp\tmpvzxioa4h.opensesame_pool\08_letter.ogg","meditation","bracelet","letter","cactus","meditation","bracelet","letter","cactus","experiment","letter","2","even","2530","TL","225974.0","C:\Users\yarbus\Desktop\Team Cat\visual-word-paradigm\temp","134610","192822","219944","131475","219944","131516","192822","NA","227991","NA","225922","131491","220989","214417","NA","NA","222092","214403","214407","131478","experiment-visual-word-paradigm","227974.0","wrote","1550","wolf.mp4","1920"
"35_soccermatch.ogg","white","legacy","True","C:\Users\yarbus\Desktop\Team Cat\visual-word-paradigm\temp","legacy","legacy","static","C:\Users\yarbus\Desktop\Team Cat\visual-word-paradigm\config.yml","0","0","1","0","1","0","0","1","1","0","1","0","1","1","1","0","1","0","1","0","27.567900246482253","50","Fri Jul 12 13:57:14 2024","20","The main experiment item","False","4292.00005531311","214402","pygame-experiment-visual-world-paradigm.osexp","C:\Users\yarbus\Desktop\Team Cat\visual-word-paradigm","black","0","0","medium-open","1000","False","mono","False","32","no","black","no","yes","1080","35","Look at the screen and listen carefully. press any key to continue","True","mono","black","32","None","None","c","legacy","-1","chicken","1","1","stadium","C:/Users/yarbus/Desktop/Team Cat/visual-word-paradigm/trials/subject-2.csv","2000","legacy","Melodramatic Milgram","4.0.13","False","mono","black","32","None","380","Pause. Look at the fixation dot in order to continue.","30000","-480","480","-480","480","270","270","-270","-270","1000","0","2","legacy","At the stadium, the girl watched a soccer match.","500","1024","2","3.7920000553131104","48000","-16","C:\Users\yarbus\AppData\Local\Temp\tmpvzxioa4h.opensesame_pool\35_soccermatch.ogg","soccer","parkfountain","bottlecap","nintendods","soccer","parkfountain","bottlecap","nintendods","experiment","soccer","2","even","2580","BL","239664.0","C:\Users\yarbus\Desktop\Team Cat\visual-word-paradigm\temp","134610","192822","233152","131475","233152","131516","192822","228067","241664","NA","239622","131491","234198","228090","228011","NA","235264","214403","228089","131478","experiment-visual-word-paradigm","241664.0","watched","1652","wolf.mp4","1920"
"10_guitar.ogg","white","legacy","True","C:\Users\yarbus\Desktop\Team Cat\visual-word-paradigm\temp","legacy","legacy","motion","C:\Users\yarbus\Desktop\Team Cat\visual-word-paradigm\config.yml","0","0","2","0","2","0","0","2","2","0","2","0","2","2","2","0","2","0","2","0","46.68151802158966","50","Fri Jul 12 13:57:14 2024","20","The main experiment item","False","4220.0000286102295","214402","pygame-experiment-visual-world-paradigm.osexp","C:\Users\yarbus\Desktop\Team Cat\visual-word-paradigm","black","0","0","medium-open","1000","False","mono","False","32","no","black","no","yes","1080","10","Look at the screen and listen carefully. press any key to continue","True","mono","black","32","None","None","c","legacy","-1","chicken","2","2","musical class","C:/Users/yarbus/Desktop/Team Cat/visual-word-paradigm/trials/subject-2.csv","2000","legacy","Melodramatic Milgram","4.0.13","False","mono","black","32","None","380","Pause. Look at the fixation dot in order to continue.","30000","-480","480","-480","480","270","270","-270","-270","1000","0","2","legacy","During musical class, the girl played guitar. ","500","1024","2","3.7200000286102295","48000","-16","C:\Users\yarbus\AppData\Local\Temp\tmpvzxioa4h.opensesame_pool\10_guitar.ogg","chicken","bowl","guitar","hiking","chicken","bowl","guitar","hiking","experiment","guitar","2","even","2750","TL","248303.0","C:\Users\yarbus\Desktop\Team Cat\visual-word-paradigm\temp","134610","192822","241775","131475","241775","131516","192822","241701","250317","NA","248257","131491","242819","241737","241667","NA","243910","214403","241724","131478","experiment-visual-word-paradigm","250303.0","played","1897","wolf.mp4","1920"
"27_treadmill.ogg","white","legacy","True","C:\Users\yarbus\Desktop\Team Cat\visual-word-paradigm\temp","legacy","legacy","motion","C:\Users\yarbus\Desktop\Team Cat\visual-word-paradigm\config.yml","0","0","3","0","3","0","0","3","3","0","3","0","3","3","3","0","3","0","3","0","16.817452349270983","50","Fri Jul 12 13:57:14 2024","20","The main experiment item","False","4339.9999141693115","214402","pygame-experiment-visual-world-paradigm.osexp","C:\Users\yarbus\Desktop\Team Cat\visual-word-paradigm","black","0","0","medium-open","1000","False","mono","False","32","no","black","no","yes","1080","27","Look at the screen and listen carefully. press any key to continue","True","mono","black","32","None","None","c","legacy","-1","chicken","3","3","gym","C:/Users/yarbus/Desktop/Team Cat/visual-word-paradigm/trials/subject-2.csv","2000","legacy","Melodramatic Milgram","4.0.13","False","mono","black","32","None","380","Pause. Look at the fixation dot in order to continue.","30000","-480","480","-480","480","270","270","-270","-270","1000","0","2","legacy","At the gym, the girl ran on the treadmill.","500","1024","2","3.8399999141693115","48000","-16","C:\Users\yarbus\AppData\Local\Temp\tmpvzxioa4h.opensesame_pool\27_treadmill.ogg","oven","duck","belt","treadmill","oven","duck","belt","treadmill","experiment","treadmill","2","even","2689","TR","257020.0","C:\Users\yarbus\Desktop\Team Cat\visual-word-paradigm\temp","134610","192822","250404","131475","250404","131516","192822","250341","259095","NA","256973","131491","251446","250374","250320","NA","252541","214403","250364","131478","experiment-visual-word-paradigm","259020.0","ran","1849","wolf.mp4","1920"
"15_keyboard.ogg","white","legacy","True","C:\Users\yarbus\Desktop\Team Cat\visual-word-paradigm\temp","legacy","legacy","motion","C:\Users\yarbus\Desktop\Team Cat\visual-word-paradigm\config.yml","0","0","4","0","4","0","0","4","4","0","4","0","4","4","4","0","4","0","4","0","19.66316268762481","50","Fri Jul 12 13:57:14 2024","20","The main experiment item","False","4196.000099182129","214402","pygame-experiment-visual-world-paradigm.osexp","C:\Users\yarbus\Desktop\Team Cat\visual-word-paradigm","black","0","0","medium-open","1000","False","mono","False","32","no","black","no","yes","1080","15","Look at the screen and listen carefully. press any key to continue","True","mono","black","32","None","None","c","legacy","-1","chicken","4","4","desk","C:/Users/yarbus/Desktop/Team Cat/visual-word-paradigm/trials/subject-2.csv","2000","legacy","Melodramatic Milgram","4.0.13","False","mono","black","32","None","380","Pause. Look at the fixation dot in order to continue.","30000","-480","480","-480","480","270","270","-270","-270","1000","0","2","legacy","At her desk, the girl typed on the keyboard.","500","1024","2","3.696000099182129","48000","-16","C:\Users\yarbus\AppData\Local\Temp\tmpvzxioa4h.opensesame_pool\15_keyboard.ogg","paintcan","sofa","keyboard","bowl","paintcan","sofa","keyboard","bowl","experiment","keyboard","2","even","2111","TL","265730.0","C:\Users\yarbus\Desktop\Team Cat\visual-word-paradigm\temp","134610","192822","259178","131475","259178","131516","192822","259119","268207","NA","265672","131491","260221","259143","259098","NA","261372","214403","259142","131478","experiment-visual-word-paradigm","267730.0","typed","1500","wolf.mp4","1920"
"19_sandcastle.ogg","white","legacy","True","C:\Users\yarbus\Desktop\Team Cat\visual-word-paradigm\temp","legacy","legacy","motion","C:\Users\yarbus\Desktop\Team Cat\visual-word-paradigm\config.yml","0","0","5","0","5","0","0","5","5","0","5","0","5","5","5","0","5","0","5","0","9.833692490616166","50","Fri Jul 12 13:57:14 2024","20","The main experiment item","False","3476.0000705718994","214402","pygame-experiment-visual-world-paradigm.osexp","C:\Users\yarbus\Desktop\Team Cat\visual-word-paradigm","black","0","0","medium-open","1000","False","mono","False","32","no","black","no","yes","1080","19","Look at the screen and listen carefully. press any key to continue","True","mono","black","32","None","None","c","legacy","-1","chicken","5","5","beach","C:/Users/yarbus/Desktop/Team Cat/visual-word-paradigm/trials/subject-2.csv","2000","legacy","Melodramatic Milgram","4.0.13","False","mono","black","32","None","380","Pause. Look at the fixation dot in order to continue.","30000","-480","480","-480","480","270","270","-270","-270","1000","0","2","legacy","At the beach, the girl built a sandcastle.","500","1024","2","2.9760000705718994","48000","-16","C:\Users\yarbus\AppData\Local\Temp\tmpvzxioa4h.opensesame_pool\19_sandcastle.ogg","meditation","dart","math","sandcastle","meditation","dart","math","sandcastle","experiment","sandcastle","2","even","1787","TR","274070.0","C:\Users\yarbus\Desktop\Team Cat\visual-word-paradigm\temp","134610","192822","268312","131475","268312","131516","192822","268254","276070","NA","274012","131491","269353","268289","268221","NA","270450","214403","268277","131478","experiment-visual-word-paradigm","276070.0","built","1169","wolf.mp4","1920"
"05_cookie.ogg","white","legacy","True","C:\Users\yarbus\Desktop\Team Cat\visual-word-paradigm\temp","legacy","legacy","motion","C:\Users\yarbus\Desktop\Team Cat\visual-word-paradigm\config.yml","0","0","6","0","6","0","0","6","6","0","6","0","6","6","6","0","6","0","6","0","35.11494420328756","50","Fri Jul 12 13:57:14 2024","20","The main experiment item","False","3907.9999923706055","214402","pygame-experiment-visual-world-paradigm.osexp","C:\Users\yarbus\Desktop\Team Cat\visual-word-paradigm","black","0","0","medium-open","1000","False","mono","False","32","no","black","no","yes","1080","5","Look at the screen and listen carefully. press any key to continue","True","mono","black","32","None","None","c","legacy","-1","chicken","6","6","breakfast","C:/Users/yarbus/Desktop/Team Cat/visual-word-paradigm/trials/subject-2.csv","2000","legacy","Melodramatic Milgram","4.0.13","False","mono","black","32","None","380","Pause. Look at the fixation dot in order to continue.","30000","-480","480","-480","480","270","270","-270","-270","1000","0","2","legacy","At breakfast, the girl ate a cookie.","500","1024","2","3.4079999923706055","48000","-16","C:\Users\yarbus\AppData\Local\Temp\tmpvzxioa4h.opensesame_pool\05_cookie.ogg","pants","nailclipper","cookie","movie","pants","nailclipper","cookie","movie","experiment","cookie","2","even","2350","TL","282329.0","C:\Users\yarbus\Desktop\Team Cat\visual-word-paradigm\temp","134610","192822","276152","131475","276152","131516","192822","276094","284378","NA","282290","131491","277194","276124","276071","NA","278305","214403","276117","131478","experiment-visual-word-paradigm","284329.0","ate","1740","wolf.mp4","1920"
"23_novel.ogg","white","legacy","True","C:\Users\yarbus\Desktop\Team Cat\visual-word-paradigm\temp","legacy","legacy","motion","C:\Users\yarbus\Desktop\Team Cat\visual-word-paradigm\config.yml","0","0","7","0","7","0","0","7","7","0","7","0","7","7","7","0","7","0","7","0","48.578531791728736","50","Fri Jul 12 13:57:14 2024","20","The main experiment item","False","3523.9999294281006","214402","pygame-experiment-visual-world-paradigm.osexp","C:\Users\yarbus\Desktop\Team Cat\visual-word-paradigm","black","0","0","medium-open","1000","False","mono","False","32","no","black","no","yes","1080","23","Look at the screen and listen carefully. press any key to continue","True","mono","black","32","None","None","c","legacy","-1","chicken","7","7","library","C:/Users/yarbus/Desktop/Team Cat/visual-word-paradigm/trials/subject-2.csv","2000","legacy","Melodramatic Milgram","4.0.13","False","mono","black","32","None","380","Pause. Look at the fixation dot in order to continue.","30000","-480","480","-480","480","270","270","-270","-270","1000","0","2","legacy","In the library, the girl read a novel.","500","1024","2","3.0239999294281006","48000","-16","C:\Users\yarbus\AppData\Local\Temp\tmpvzxioa4h.opensesame_pool\23_novel.ogg","guitar","bracelet","marshmallow","novel","guitar","bracelet","marshmallow","novel","experiment","novel","2","even","2220","TR","290287.0","C:\Users\yarbus\Desktop\Team Cat\visual-word-paradigm\temp","134610","192822","284494","131475","284494","131516","192822","284415","292461","NA","290237","131491","285540","284455","284379","NA","286605","214403","284443","131478","experiment-visual-word-paradigm","292287.0","read","1595","wolf.mp4","1920"
"45_basketball.ogg","white","legacy","True","C:\Users\yarbus\Desktop\Team Cat\visual-word-paradigm\temp","legacy","legacy","static","C:\Users\yarbus\Desktop\Team Cat\visual-word-paradigm\config.yml","0","0","8","0","8","0","0","8","8","0","8","0","8","8","8","0","8","0","8","0","49.6600312476744","50","Fri Jul 12 13:57:14 2024","20","The main experiment item","False","4196.000099182129","214402","pygame-experiment-visual-world-paradigm.osexp","C:\Users\yarbus\Desktop\Team Cat\visual-word-paradigm","black","0","0","medium-open","1000","False","mono","False","32","no","black","no","yes","1080","45","Look at the screen and listen carefully. press any key to continue","True","mono","black","32","None","None","c","legacy","-1","chicken","8","8","sports hall","C:/Users/yarbus/Desktop/Team Cat/visual-word-paradigm/trials/subject-2.csv","2000","legacy","Melodramatic Milgram","4.0.13","False","mono","black","32","None","380","Pause. Look at the fixation dot in order to continue.","30000","-480","480","-480","480","270","270","-270","-270","1000","0","2","legacy","At the sports hall, the girl played basketball.","500","1024","2","3.696000099182129","48000","-16","C:\Users\yarbus\AppData\Local\Temp\tmpvzxioa4h.opensesame_pool\45_basketball.ogg","basketball","mitten","clothes","boxtruck","basketball","mitten","clothes","boxtruck","experiment","basketball","2","even","2613","BL","299005.0","C:\Users\yarbus\Desktop\Team Cat\visual-word-paradigm\temp","134610","192822","292571","131475","292571","131516","192822","292507","301005","NA","298961","131491","293613","292544","292473","NA","294698","214403","292529","131478","experiment-visual-word-paradigm","301005.0","played","1819","wolf.mp4","1920"
"30_cottoncandy.ogg","white","legacy","True","C:\Users\yarbus\Desktop\Team Cat\visual-word-paradigm\temp","legacy","legacy","motion","C:\Users\yarbus\Desktop\Team Cat\visual-word-paradigm\config.yml","0","0","9","0","9","0","0","9","9","0","9","0","9","9","9","0","9","0","9","0","14.535901309516412","50","Fri Jul 12 13:57:14 2024","20","The main experiment item","False","4028.0001163482666","214402","pygame-experiment-visual-world-paradigm.osexp","C:\Users\yarbus\Desktop\Team Cat\visual-word-paradigm","black","0","0","medium-open","1000","False","mono","False","32","no","black","no","yes","1080","30","Look at the screen and listen carefully. press any key to continue","True","mono","black","32","None","None","c","legacy","-1","chicken","9","9","carnival","C:/Users/yarbus/Desktop/Team Cat/visual-word-paradigm/trials/subject-2.csv","2000","legacy","Melodramatic Milgram","4.0.13","False","mono","black","32","None","380","Pause. Look at the fixation dot in order to continue.","30000","-480","480","-480","480","270","270","-270","-270","1000","0","2","legacy","At the carnival, the girl ate cotton candy.","500","1024","2","3.5280001163482666","48000","-16","C:\Users\yarbus\AppData\Local\Temp\tmpvzxioa4h.opensesame_pool\30_cottoncandy.ogg","badminton","armchair","boxingglove","cottoncandy","badminton","armchair","boxingglove","cottoncandy","experiment","cottoncandy","2","even","2400","TR","307434.0","C:\Users\yarbus\Desktop\Team Cat\visual-word-paradigm\temp","134610","192822","301120","131475","301120","131516","192822","301047","309486","NA","307391","131491","302169","301083","301020","NA","303271","214403","301070","131478","experiment-visual-word-paradigm","309434.0","ate","1970","wolf.mp4","1920"
"47_baggage.ogg","white","legacy","True","C:\Users\yarbus\Desktop\Team Cat\visual-word-paradigm\temp","legacy","legacy","static","C:\Users\yarbus\Desktop\Team Cat\visual-word-paradigm\config.yml","0","0","10","0","10","0","0","10","10","0","10","0","10","10","10","0","10","0","10","0","17.951137880368535","50","Fri Jul 12 13:57:14 2024","20","The main experiment item","False","4676.000118255615","214402","pygame-experiment-visual-world-paradigm.osexp","C:\Users\yarbus\Desktop\Team Cat\visual-word-paradigm","black","0","0","medium-open","1000","False","mono","False","32","no","black","no","yes","1080","47","Look at the screen and listen carefully. press any key to continue","True","mono","black","32","None","None","c","legacy","-1","chicken","10","10","airport","C:/Users/yarbus/Desktop/Team Cat/visual-word-paradigm/trials/subject-2.csv","2000","legacy","Melodramatic Milgram","4.0.13","False","mono","black","32","None","380","Pause. Look at the fixation dot in order to continue.","30000","-480","480","-480","480","270","270","-270","-270","1000","0","2","legacy","At the airport, the girl waited at the baggage claim.","500","1024","2","4.176000118255615","48000","-16","C:\Users\yarbus\AppData\Local\Temp\tmpvzxioa4h.opensesame_pool\47_baggage.ogg","baggage","rollercoaster","basketballhoop","croissant","baggage","rollercoaster","basketballhoop","croissant","experiment","baggage","2","even","2756","BL","316479.0","C:\Users\yarbus\Desktop\Team Cat\visual-word-paradigm\temp","134610","192822","309594","131475","309594","131516","192822","309520","318479","NA","316436","131491","310637","309560","309489","NA","311703","214403","309546","131478","experiment-visual-word-paradigm","318479.0","waited","1593","wolf.mp4","1920"
"06_croissant.ogg","white","legacy","True","C:\Users\yarbus\Desktop\Team Cat\visual-word-paradigm\temp","legacy","legacy","motion","C:\Users\yarbus\Desktop\Team Cat\visual-word-paradigm\config.yml","0","0","11","0","11","0","0","11","11","0","11","0","11","11","11","0","11","0","11","0","13.050422558675942","50","Fri Jul 12 13:57:14 2024","20","The main experiment item","False","4075.999975204468","214402","pygame-experiment-visual-world-paradigm.osexp","C:\Users\yarbus\Desktop\Team Cat\visual-word-paradigm","black","0","0","medium-open","1000","False","mono","False","32","no","black","no","yes","1080","6","Look at the screen and listen carefully. press any key to continue","True","mono","black","32","None","None","c","legacy","-1","chicken","11","11","breakfast","C:/Users/yarbus/Desktop/Team Cat/visual-word-paradigm/trials/subject-2.csv","2000","legacy","Melodramatic Milgram","4.0.13","False","mono","black","32","None","380","Pause. Look at the fixation dot in order to continue.","30000","-480","480","-480","480","270","270","-270","-270","1000","0","2","legacy","At breakfast, the girl ate a croissant. ","500","1024","2","3.5759999752044678","48000","-16","C:\Users\yarbus\AppData\Local\Temp\tmpvzxioa4h.opensesame_pool\06_croissant.ogg","dance","makeup","croissant","duck","dance","makeup","croissant","duck","experiment","croissant","2","even","2576","TL","324872.0","C:\Users\yarbus\Desktop\Team Cat\visual-word-paradigm\temp","134610","192822","318580","131475","318580","131516","192822","318520","326872","NA","324839","131491","319623","318551","318491","NA","320697","214403","318543","131478","experiment-visual-word-paradigm","326872.0","ate","1876","wolf.mp4","1920"
"55_frisbee.ogg","white","legacy","True","C:\Users\yarbus\Desktop\Team Cat\visual-word-paradigm\temp","legacy","legacy","static","C:\Users\yarbus\Desktop\Team Cat\visual-word-paradigm\config.yml","0","0","12","0","12","0","0","12","12","0","12","0","12","12","12","0","12","0","12","0","15.439311782589296","50","Fri Jul 12 13:57:14 2024","20","The main experiment item","False","3716.0000801086426","214402","pygame-experiment-visual-world-paradigm.osexp","C:\Users\yarbus\Desktop\Team Cat\visual-word-paradigm","black","0","0","medium-open","1000","False","mono","False","32","no","black","no","yes","1080","55","Look at the screen and listen carefully. press any key to continue","True","mono","black","32","None","None","c","legacy","-1","chicken","12","12","grass","C:/Users/yarbus/Desktop/Team Cat/visual-word-paradigm/trials/subject-2.csv","2000","legacy","Melodramatic Milgram","4.0.13","False","mono","black","32","None","380","Pause. Look at the fixation dot in order to continue.","30000","-480","480","-480","480","270","270","-270","-270","1000","0","2","legacy","On the grass, the girl played frisbee.","500","1024","2","3.2160000801086426","48000","-16","C:\Users\yarbus\AppData\Local\Temp\tmpvzxioa4h.opensesame_pool\55_frisbee.ogg","car","frisbee","math","rollercoaster","car","frisbee","math","rollercoaster","experiment","frisbee","2","even","2036","BR","332898.0","C:\Users\yarbus\Desktop\Team Cat\visual-word-paradigm\temp","134610","192822","326964","131475","326964","131516","192822","326906","334898","NA","332855","131491","328006","326931","326875","NA","329078","214403","326929","131478","experiment-visual-word-paradigm","334898.0","played","1742","wolf.mp4","1920"
"31_landscape.ogg","white","legacy","True","C:\Users\yarbus\Desktop\Team Cat\visual-word-paradigm\temp","legacy","legacy","motion","C:\Users\yarbus\Desktop\Team Cat\visual-word-paradigm\config.yml","0","0","13","0","13","0","0","13","13","0","13","0","13","13","13","0","13","0","13","0","41.534484334827106","50","Fri Jul 12 13:57:14 2024","20","The main experiment item","False","4220.0000286102295","214402","pygame-experiment-visual-world-paradigm.osexp","C:\Users\yarbus\Desktop\Team Cat\visual-word-paradigm","black","0","0","medium-open","1000","False","mono","False","32","no","black","no","yes","1080","31","Look at the screen and listen carefully. press any key to continue","True","mono","black","32","None","None","c","legacy","-1","chicken","13","13","art class","C:/Users/yarbus/Desktop/Team Cat/visual-word-paradigm/trials/subject-2.csv","2000","legacy","Melodramatic Milgram","4.0.13","False","mono","black","32","None","380","Pause. Look at the fixation dot in order to continue.","30000","-480","480","-480","480","270","270","-270","-270","1000","0","2","legacy","During art class, the girl painted a landscape.","500","1024","2","3.7200000286102295","48000","-16","C:\Users\yarbus\AppData\Local\Temp\tmpvzxioa4h.opensesame_pool\31_landscape.ogg","cats","boxtruck","belt","landscapepainting","cats","boxtruck","belt","landscapepainting","experiment","landscapepainting","2","even","2742","TR","341633.0","C:\Users\yarbus\Desktop\Team Cat\visual-word-paradigm\temp","134610","192822","335008","131475","335009","131516","192822","334938","343939","NA","341580","131491","336055","334974","334901","NA","337252","214403","334964","131478","experiment-visual-word-paradigm","343633.0","painted","2015","wolf.mp4","1920"
"29_ferriswheel.ogg","white","legacy","True","C:\Users\yarbus\Desktop\Team Cat\visual-word-paradigm\temp","legacy","legacy","motion","C:\Users\yarbus\Desktop\Team Cat\visual-word-paradigm\config.yml","0","0","14","0","14","0","0","14","14","0","14","0","14","14","14","0","14","0","14","0","19.282817026565347","50","Fri Jul 12 13:57:14 2024","20","The main experiment item","False","4843.999862670898","214402","pygame-experiment-visual-world-paradigm.osexp","C:\Users\yarbus\Desktop\Team Cat\visual-word-paradigm","black","0","0","medium-open","1000","False","mono","False","32","no","black","no","yes","1080","29","Look at the screen and listen carefully. press any key to continue","True","mono","black","32","None","None","c","legacy","-1","chicken","14","14","carnival","C:/Users/yarbus/Desktop/Team Cat/visual-word-paradigm/trials/subject-2.csv","2000","legacy","Melodramatic Milgram","4.0.13","False","mono","black","32","None","380","Pause. Look at the fixation dot in order to continue.","30000","-480","480","-480","480","270","270","-270","-270","1000","0","2","legacy","At the carnival, the girl rode on a Ferris wheel.","500","1024","2","4.343999862670898","48000","-16","C:\Users\yarbus\AppData\Local\Temp\tmpvzxioa4h.opensesame_pool\29_ferriswheel.ogg","vegetables","button","paperclip","ferriswheel","vegetables","button","paperclip","ferriswheel","experiment","ferriswheel","2","even","3120","TR","351134.0","C:\Users\yarbus\Desktop\Team Cat\visual-word-paradigm\temp","134610","192822","344032","131475","344032","131516","192822","343977","353134","NA","351084","131491","345078","344009","343942","NA","346181","214403","344000","131478","experiment-visual-word-paradigm","353134.0","rode","1662","wolf.mp4","1920"
"52_pool.ogg","white","legacy","True","C:\Users\yarbus\Desktop\Team Cat\visual-word-paradigm\temp","legacy","legacy","static","C:\Users\yarbus\Desktop\Team Cat\visual-word-paradigm\config.yml","0","0","15","0","15","0","0","15","15","0","15","0","15","15","15","0","15","0","15","0","13.69102566208975","50","Fri Jul 12 13:57:14 2024","20","The main experiment item","False","3548.0000972747803","214402","pygame-experiment-visual-world-paradigm.osexp","C:\Users\yarbus\Desktop\Team Cat\visual-word-paradigm","black","0","0","medium-open","1000","False","mono","False","32","no","black","no","yes","1080","52","Look at the screen and listen carefully. press any key to continue","True","mono","black","32","None","None","c","legacy","-1","chicken","15","15","bar","C:/Users/yarbus/Desktop/Team Cat/visual-word-paradigm/trials/subject-2.csv","2000","legacy","Melodramatic Milgram","4.0.13","False","mono","black","32","None","380","Pause. Look at the fixation dot in order to continue.","30000","-480","480","-480","480","270","270","-270","-270","1000","0","2","legacy","In the bar, the girl played pool.","500","1024","2","3.0480000972747803","48000","-16","C:\Users\yarbus\AppData\Local\Temp\tmpvzxioa4h.opensesame_pool\52_pool.ogg","paperairplane","pool","calculator","dance","paperairplane","pool","calculator","dance","experiment","pool","2","even","1993","BR","358995.0","C:\Users\yarbus\Desktop\Team Cat\visual-word-paradigm\temp","134610","192822","353215","131475","353215","131516","192822","353159","360995","NA","358942","131491","354262","353191","353135","NA","355340","214403","353182","131478","experiment-visual-word-paradigm","360995.0","played","1298","wolf.mp4","1920"
"53_darts.ogg","white","legacy","True","C:\Users\yarbus\Desktop\Team Cat\visual-word-paradigm\temp","legacy","legacy","static","C:\Users\yarbus\Desktop\Team Cat\visual-word-paradigm\config.yml","0","0","16","0","16","0","0","16","16","0","16","0","16","16","16","0","16","0","16","0","15.361560670713075","50","Fri Jul 12 13:57:14 2024","20","The main experiment item","False","3907.9999923706055","214402","pygame-experiment-visual-world-paradigm.osexp","C:\Users\yarbus\Desktop\Team Cat\visual-word-paradigm","black","0","0","medium-open","1000","False","mono","False","32","no","black","no","yes","1080","53","Look at the screen and listen carefully. press any key to continue","True","mono","black","32","None","None","c","legacy","-1","chicken","16","16","bar","C:/Users/yarbus/Desktop/Team Cat/visual-word-paradigm/trials/subject-2.csv","2000","legacy","Melodramatic Milgram","4.0.13","False","mono","black","32","None","380","Pause. Look at the fixation dot in order to continue.","30000","-480","480","-480","480","270","270","-270","-270","1000","0","2","legacy","In the bar, the girl played darts. ","500","1024","2","3.4079999923706055","48000","-16","C:\Users\yarbus\AppData\Local\Temp\tmpvzxioa4h.opensesame_pool\53_darts.ogg","dog","dart","popcorn","shoppingcart","dog","dart","popcorn","shoppingcart","experiment","dart","2","even","2809","BR","367228.0","C:\Users\yarbus\Desktop\Team Cat\visual-word-paradigm\temp","134610","192822","361097","131475","361097","131516","192822","361033","369228","NA","367177","131491","362138","361068","361007","NA","363217","214403","361061","131478","experiment-visual-word-paradigm","369228.0","played","1930","wolf.mp4","1920"
"59_documents.ogg","white","legacy","True","C:\Users\yarbus\Desktop\Team Cat\visual-word-paradigm\temp","legacy","legacy","static","C:\Users\yarbus\Desktop\Team Cat\visual-word-paradigm\config.yml","0","0","17","0","17","0","0","17","17","0","17","0","17","17","17","0","17","0","17","0","28.979764794076587","50","Fri Jul 12 13:57:14 2024","20","The main experiment item","False","4243.99995803833","214402","pygame-experiment-visual-world-paradigm.osexp","C:\Users\yarbus\Desktop\Team Cat\visual-word-paradigm","black","0","0","medium-open","1000","False","mono","False","32","no","black","no","yes","1080","59","Look at the screen and listen carefully. press any key to continue","True","mono","black","32","None","None","c","legacy","-1","chicken","17","17","office","C:/Users/yarbus/Desktop/Team Cat/visual-word-paradigm/trials/subject-2.csv","2000","legacy","Melodramatic Milgram","4.0.13","False","mono","black","32","None","380","Pause. Look at the fixation dot in order to continue.","30000","-480","480","-480","480","270","270","-270","-270","1000","0","2","legacy","In the office, the girl printed documents. ","500","1024","2","3.74399995803833","48000","-16","C:\Users\yarbus\AppData\Local\Temp\tmpvzxioa4h.opensesame_pool\59_documents.ogg","brainmodel","documents","weights","fishing","brainmodel","documents","weights","fishing","experiment","documents","2","even","2487","BR","375788.0","C:\Users\yarbus\Desktop\Team Cat\visual-word-paradigm\temp","134610","192822","369318","131475","369318","131516","192822","369257","377788","NA","375742","131491","370357","369289","369229","NA","371435","214403","369280","131478","experiment-visual-word-paradigm","377788.0","printed","1575","wolf.mp4","1920"
"36_marathon.ogg","white","legacy","True","C:\Users\yarbus\Desktop\Team Cat\visual-word-paradigm\temp","legacy","legacy","static","C:\Users\yarbus\Desktop\Team Cat\visual-word-paradigm\config.yml","0","0","18","0","18","0","0","18","18","0","18","0","18","18","18","0","18","0","18","0","24.725556919106964","50","Fri Jul 12 13:57:14 2024","20","The main experiment item","False","3835.9999656677246","214402","pygame-experiment-visual-world-paradigm.osexp","C:\Users\yarbus\Desktop\Team Cat\visual-word-paradigm","black","0","0","medium-open","1000","False","mono","False","32","no","black","no","yes","1080","36","Look at the screen and listen carefully. press any key to continue","True","mono","black","32","None","None","c","legacy","-1","chicken","18","18","stadium","C:/Users/yarbus/Desktop/Team Cat/visual-word-paradigm/trials/subject-2.csv","2000","legacy","Melodramatic Milgram","4.0.13","False","mono","black","32","None","380","Pause. Look at the fixation dot in order to continue.","30000","-480","480","-480","480","270","270","-270","-270","1000","0","2","legacy","At the stadium, the girl ran a marathon.","500","1024","2","3.3359999656677246","48000","-16","C:\Users\yarbus\AppData\Local\Temp\tmpvzxioa4h.opensesame_pool\36_marathon.ogg","marathon","dishes","mouse","bust","marathon","dishes","mouse","bust","experiment","marathon","2","even","2382","BL","383956.0","C:\Users\yarbus\Desktop\Team Cat\visual-word-paradigm\temp","134610","192822","377884","131475","377884","131516","192822","377826","385956","NA","383910","131491","378930","377851","377800","NA","380013","214403","377849","131478","experiment-visual-word-paradigm","385956.0","ran","1389","wolf.mp4","1920"
"51_beer.ogg","white","legacy","True","C:\Users\yarbus\Desktop\Team Cat\visual-word-paradigm\temp","legacy","legacy","static","C:\Users\yarbus\Desktop\Team Cat\visual-word-paradigm\config.yml","0","0","19","0","19","0","0","19","19","0","19","0","19","19","19","0","19","0","19","0","27.506337492294374","50","Fri Jul 12 13:57:14 2024","20","The main experiment item","False","3308.000087738037","214402","pygame-experiment-visual-world-paradigm.osexp","C:\Users\yarbus\Desktop\Team Cat\visual-word-paradigm","black","0","0","medium-open","1000","False","mono","False","32","no","black","no","yes","1080","51","Look at the screen and listen carefully. press any key to continue","True","mono","black","32","None","None","c","legacy","-1","chicken","19","19","bar","C:/Users/yarbus/Desktop/Team Cat/visual-word-paradigm/trials/subject-2.csv","2000","legacy","Melodramatic Milgram","4.0.13","False","mono","black","32","None","380","Pause. Look at the fixation dot in order to continue.","30000","-480","480","-480","480","270","270","-270","-270","1000","0","2","legacy","In the bar, the girl drank beer. ","500","1024","2","2.808000087738037","48000","-16","C:\Users\yarbus\AppData\Local\Temp\tmpvzxioa4h.opensesame_pool\51_beer.ogg","treadmill","beer","bathtub","plants","treadmill","beer","bathtub","plants","experiment","beer","2","even","2090","BR","391561.0","C:\Users\yarbus\Desktop\Team Cat\visual-word-paradigm\temp","134610","192822","386054","131475","386054","131516","192822","385993","393561","NA","391517","131491","387092","386026","385969","NA","388153","214403","386019","131478","experiment-visual-word-paradigm","393561.0","drank","1585","wolf.mp4","1920"
"44_bathtub.ogg","white","legacy","True","C:\Users\yarbus\Desktop\Team Cat\visual-word-paradigm\temp","legacy","legacy","static","C:\Users\yarbus\Desktop\Team Cat\visual-word-paradigm\config.yml","0","0","20","0","20","0","0","20","20","0","20","0","20","20","20","0","20","0","20","0","20.29920000000002","50","Fri Jul 12 13:57:14 2024","20","The main experiment item","False","4099.999904632568","214402","pygame-experiment-visual-world-paradigm.osexp","C:\Users\yarbus\Desktop\Team Cat\visual-word-paradigm","black","0","0","medium-open","1000","False","mono","False","32","no","black","no","yes","1080","44","Look at the screen and listen carefully. press any key to continue","True","mono","black","32","None","None","c","legacy","-1","chicken","20","20","spa","C:/Users/yarbus/Desktop/Team Cat/visual-word-paradigm/trials/subject-2.csv","2000","legacy","Melodramatic Milgram","4.0.13","False","mono","black","32","None","380","Pause. Look at the fixation dot in order to continue.","30000","-480","480","-480","480","270","270","-270","-270","1000","0","2","legacy","In the spa, the girl relaxed in the bathtub.","500","1024","2","3.5999999046325684","48000","-16","C:\Users\yarbus\AppData\Local\Temp\tmpvzxioa4h.opensesame_pool\44_bathtub.ogg","bathtub","wedding","dog","moon","bathtub","wedding","dog","moon","experiment","bathtub","2","even","2713","BL","399975.0","C:\Users\yarbus\Desktop\Team Cat\visual-word-paradigm\temp","134610","192822","393670","131475","393670","131516","192822","393601","401975","NA","399933","131491","394714","393636","393562","NA","395784","214403","393624","131478","experiment-visual-word-paradigm","401975.0","relaxed","1683","wolf.mp4","1920"
"37_vegetables.ogg","white","legacy","True","C:\Users\yarbus\Desktop\Team Cat\visual-word-paradigm\temp","legacy","legacy","static","C:\Users\yarbus\Desktop\Team Cat\visual-word-paradigm\config.yml","0","0","21","0","21","0","0","21","21","0","21","0","21","21","21","0","21","0","21","0","47.52051176997146","50","Fri Jul 12 13:57:14 2024","20","The main experiment item","False","4003.999948501587","214402","pygame-experiment-visual-world-paradigm.osexp","C:\Users\yarbus\Desktop\Team Cat\visual-word-paradigm","black","0","0","medium-open","1000","False","mono","False","32","no","black","no","yes","1080","37","Look at the screen and listen carefully. press any key to continue","True","mono","black","32","None","None","c","legacy","-1","chicken","21","21","market","C:/Users/yarbus/Desktop/Team Cat/visual-word-paradigm/trials/subject-2.csv","2000","legacy","Melodramatic Milgram","4.0.13","False","mono","black","32","None","380","Pause. Look at the fixation dot in order to continue.","30000","-480","480","-480","480","270","270","-270","-270","1000","0","2","legacy","At the market, the girl bought fresh vegetables.","500","1024","2","3.503999948501587","48000","-16","C:\Users\yarbus\AppData\Local\Temp\tmpvzxioa4h.opensesame_pool\37_vegetables.ogg","vegetables","pacifier","duck","bicycle","vegetables","pacifier","duck","bicycle","experiment","vegetables","2","even","2344","BL","416361.0","C:\Users\yarbus\Desktop\Team Cat\visual-word-paradigm\temp","134610","192822","410124","131475","410124","131516","192822","402019","418369","NA","416313","131491","411168","402056","401978","NA","412249","214403","402043","131478","experiment-visual-word-paradigm","418361.0","bought","1606","wolf.mp4","1920"
"03_sandwich.ogg","white","legacy","True","C:\Users\yarbus\Desktop\Team Cat\visual-word-paradigm\temp","legacy","legacy","motion","C:\Users\yarbus\Desktop\Team Cat\visual-word-paradigm\config.yml","0","0","22","0","22","0","0","22","22","0","22","0","22","22","22","0","22","0","22","0","40.64588197591488","50","Fri Jul 12 13:57:14 2024","20","The main experiment item","False","4099.999904632568","214402","pygame-experiment-visual-world-paradigm.osexp","C:\Users\yarbus\Desktop\Team Cat\visual-word-paradigm","black","0","0","medium-open","1000","False","mono","False","32","no","black","no","yes","1080","3","Look at the screen and listen carefully. press any key to continue","True","mono","black","32","None","None","c","legacy","-1","chicken","22","22","dinner time","C:/Users/yarbus/Desktop/Team Cat/visual-word-paradigm/trials/subject-2.csv","2000","legacy","Melodramatic Milgram","4.0.13","False","mono","black","32","None","380","Pause. Look at the fixation dot in order to continue.","30000","-480","480","-480","480","270","270","-270","-270","1000","0","2","legacy","At dinner time, the girl ate a sandwich.","500","1024","2","3.5999999046325684","48000","-16","C:\Users\yarbus\AppData\Local\Temp\tmpvzxioa4h.opensesame_pool\03_sandwich.ogg","bulldozer","belt","sandwich","patioumbrella","bulldozer","belt","sandwich","patioumbrella","experiment","sandwich","2","even","2711","TL","424841.0","C:\Users\yarbus\Desktop\Team Cat\visual-word-paradigm\temp","134610","192822","418470","131475","418470","131516","192822","418399","427396","NA","424801","131491","419513","418436","418372","NA","420593","214403","418426","131478","experiment-visual-word-paradigm","426841.0","ate","2287","wolf.mp4","1920"
"18_armchair.ogg","white","legacy","True","C:\Users\yarbus\Desktop\Team Cat\visual-word-paradigm\temp","legacy","legacy","motion","C:\Users\yarbus\Desktop\Team Cat\visual-word-paradigm\config.yml","0","0","23","0","23","0","0","23","23","0","23","0","23","23","23","0","23","0","23","0","25.44619693392321","50","Fri Jul 12 13:57:14 2024","20","The main experiment item","False","3788.0001068115234","214402","pygame-experiment-visual-world-paradigm.osexp","C:\Users\yarbus\Desktop\Team Cat\visual-word-paradigm","black","0","0","medium-open","1000","False","mono","False","32","no","black","no","yes","1080","18","Look at the screen and listen carefully. press any key to continue","True","mono","black","32","None","None","c","legacy","-1","chicken","23","23","living room","C:/Users/yarbus/Desktop/Team Cat/visual-word-paradigm/trials/subject-2.csv","2000","legacy","Melodramatic Milgram","4.0.13","False","mono","black","32","None","380","Pause. Look at the fixation dot in order to continue.","30000","-480","480","-480","480","270","270","-270","-270","1000","0","2","legacy","In the living room, the girl sat in an armchair.","500","1024","2","3.2880001068115234","48000","-16","C:\Users\yarbus\AppData\Local\Temp\tmpvzxioa4h.opensesame_pool\18_armchair.ogg","wolf","battleship","frisbee","armchair","wolf","battleship","frisbee","armchair","experiment","armchair","2","even","2048","TR","433601.0","C:\Users\yarbus\Desktop\Team Cat\visual-word-paradigm\temp","134610","192822","427493","131475","427493","131516","192822","427437","435618","NA","433558","131491","428537","427461","427410","NA","429629","214403","427460","131478","experiment-visual-word-paradigm","435601.0","sat","1290","wolf.mp4","1920"
"24_cake.ogg","white","legacy","True","C:\Users\yarbus\Desktop\Team Cat\visual-word-paradigm\temp","legacy","legacy","motion","C:\Users\yarbus\Desktop\Team Cat\visual-word-paradigm\config.yml","0","0","24","0","24","0","0","24","24","0","24","0","24","24","24","0","24","0","24","0","22.798430630199075","50","Fri Jul 12 13:57:14 2024","20","The main experiment item","False","3548.0000972747803","214402","pygame-experiment-visual-world-paradigm.osexp","C:\Users\yarbus\Desktop\Team Cat\visual-word-paradigm","black","0","0","medium-open","1000","False","mono","False","32","no","black","no","yes","1080","24","Look at the screen and listen carefully. press any key to continue","True","mono","black","32","None","None","c","legacy","-1","chicken","24","24","kitchen","C:/Users/yarbus/Desktop/Team Cat/visual-word-paradigm/trials/subject-2.csv","2000","legacy","Melodramatic Milgram","4.0.13","False","mono","black","32","None","380","Pause. Look at the fixation dot in order to continue.","30000","-480","480","-480","480","270","270","-270","-270","1000","0","2","legacy","In the kitchen, the girl baked a cake.","500","1024","2","3.0480000972747803","48000","-16","C:\Users\yarbus\AppData\Local\Temp\tmpvzxioa4h.opensesame_pool\24_cake.ogg","button","cello","seashells","cake","button","cello","seashells","cake","experiment","cake","2","even","2253","TR","441483.0","C:\Users\yarbus\Desktop\Team Cat\visual-word-paradigm\temp","134610","192822","435728","131475","435728","131516","192822","435669","443912","NA","441439","131491","436760","435703","435631","NA","437844","214403","435693","131478","experiment-visual-word-paradigm","443483.0","baked","1409","wolf.mp4","1920"
"17_sofa.ogg","white","legacy","True","C:\Users\yarbus\Desktop\Team Cat\visual-word-paradigm\temp","legacy","legacy","motion","C:\Users\yarbus\Desktop\Team Cat\visual-word-paradigm\config.yml","0","0","25","0","25","0","0","25","25","0","25","0","25","25","25","0","25","0","25","0","35.99049524527275","50","Fri Jul 12 13:57:14 2024","20","The main experiment item","False","3956.0000896453857","214402","pygame-experiment-visual-world-paradigm.osexp","C:\Users\yarbus\Desktop\Team Cat\visual-word-paradigm","black","0","0","medium-open","1000","False","mono","False","32","no","black","no","yes","1080","17","Look at the screen and listen carefully. press any key to continue","True","mono","black","32","None","None","c","legacy","-1","chicken","25","25","living room","C:/Users/yarbus/Desktop/Team Cat/visual-word-paradigm/trials/subject-2.csv","2000","legacy","Melodramatic Milgram","4.0.13","False","mono","black","32","None","380","Pause. Look at the fixation dot in order to continue.","30000","-480","480","-480","480","270","270","-270","-270","1000","0","2","legacy","In the living room, the girl sat on a sofa. ","500","1024","2","3.4560000896453857","48000","-16","C:\Users\yarbus\AppData\Local\Temp\tmpvzxioa4h.opensesame_pool\17_sofa.ogg","kite","egg","pencilsharpener","sofa","kite","egg","pencilsharpener","sofa","experiment","sofa","2","even","2636","TR","450265.0","C:\Users\yarbus\Desktop\Team Cat\visual-word-paradigm\temp","134610","192822","444021","131475","444021","131516","192822","443950","452284","NA","450226","131491","445069","443988","443913","NA","446161","214403","443976","131478","experiment-visual-word-paradigm","452265.0","sat","1619","wolf.mp4","1920"
"40_shopping_cart.ogg","white","legacy","True","C:\Users\yarbus\Desktop\Team Cat\visual-word-paradigm\temp","legacy","legacy","static","C:\Users\yarbus\Desktop\Team Cat\visual-word-paradigm\config.yml","0","0","26","0","26","0","0","26","26","0","26","0","26","26","26","0","26","0","26","0","16.260668798053707","50","Fri Jul 12 13:57:14 2024","20","The main experiment item","False","4796.000003814697","214402","pygame-experiment-visual-world-paradigm.osexp","C:\Users\yarbus\Desktop\Team Cat\visual-word-paradigm","black","0","0","medium-open","1000","False","mono","False","32","no","black","no","yes","1080","40","Look at the screen and listen carefully. press any key to continue","True","mono","black","32","None","None","c","legacy","-1","chicken","26","26","grocery store","C:/Users/yarbus/Desktop/Team Cat/visual-word-paradigm/trials/subject-2.csv","2000","legacy","Melodramatic Milgram","4.0.13","False","mono","black","32","None","380","Pause. Look at the fixation dot in order to continue.","30000","-480","480","-480","480","270","270","-270","-270","1000","0","2","legacy","At the grocery store, the girl pushed the shopping cart","500","1024","2","4.296000003814697","48000","-16","C:\Users\yarbus\AppData\Local\Temp\tmpvzxioa4h.opensesame_pool\40_shopping_cart.ogg","shoppingcart","nintendods","bulldozer","paperclip","shoppingcart","nintendods","bulldozer","paperclip","experiment","shoppingcart","2","even","3355","BL","459410.0","C:\Users\yarbus\Desktop\Team Cat\visual-word-paradigm\temp","134610","192822","452402","131475","452402","131516","192822","452329","461419","NA","459364","131491","453448","452370","452296","NA","454502","214403","452352","131478","experiment-visual-word-paradigm","461410.0","pushed","2390","wolf.mp4","1920"
"60_tree.ogg","white","legacy","True","C:\Users\yarbus\Desktop\Team Cat\visual-word-paradigm\temp","legacy","legacy","static","C:\Users\yarbus\Desktop\Team Cat\visual-word-paradigm\config.yml","0","0","27","0","27","0","0","27","27","0","27","0","27","27","27","0","27","0","27","0","30.923260084279622","50","Fri Jul 12 13:57:14 2024","20","The main experiment item","False","4267.999887466431","214402","pygame-experiment-visual-world-paradigm.osexp","C:\Users\yarbus\Desktop\Team Cat\visual-word-paradigm","black","0","0","medium-open","1000","False","mono","False","32","no","black","no","yes","1080","60","Look at the screen and listen carefully. press any key to continue","True","mono","black","32","None","None","c","legacy","-1","chicken","27","27","forest","C:/Users/yarbus/Desktop/Team Cat/visual-word-paradigm/trials/subject-2.csv","2000","legacy","Melodramatic Milgram","4.0.13","False","mono","black","32","None","380","Pause. Look at the fixation dot in order to continue.","30000","-480","480","-480","480","270","270","-270","-270","1000","0","2","legacy","In the forest, the girl cut down a tree.","500","1024","2","3.7679998874664307","48000","-16","C:\Users\yarbus\AppData\Local\Temp\tmpvzxioa4h.opensesame_pool\60_tree.ogg","bookshelf","tree","calculator","cactus","bookshelf","tree","calculator","cactus","experiment","tree","2","even","2469","BR","467999.0","C:\Users\yarbus\Desktop\Team Cat\visual-word-paradigm\temp","134610","192822","461547","131475","461547","131516","192822","461474","470404","NA","467960","131491","462576","461511","461431","NA","463638","214403","461497","131478","experiment-visual-word-paradigm","469999.0","cut","1377","wolf.mp4","1920"
"04_banana.ogg","white","legacy","True","C:\Users\yarbus\Desktop\Team Cat\visual-word-paradigm\temp","legacy","legacy","motion","C:\Users\yarbus\Desktop\Team Cat\visual-word-paradigm\config.yml","0","0","28","0","28","0","0","28","28","0","28","0","28","28","28","0","28","0","28","0","45.09124905256005","50","Fri Jul 12 13:57:14 2024","20","The main experiment item","False","4003.999948501587","214402","pygame-experiment-visual-world-paradigm.osexp","C:\Users\yarbus\Desktop\Team Cat\visual-word-paradigm","black","0","0","medium-open","1000","False","mono","False","32","no","black","no","yes","1080","4","Look at the screen and listen carefully. press any key to continue","True","mono","black","32","None","None","c","legacy","-1","chicken","28","28","breakfast","C:/Users/yarbus/Desktop/Team Cat/visual-word-paradigm/trials/subject-2.csv","2000","legacy","Melodramatic Milgram","4.0.13","False","mono","black","32","None","380","Pause. Look at the fixation dot in order to continue.","30000","-480","480","-480","480","270","270","-270","-270","1000","0","2","legacy","At breakfast, the girl ate a banana.","500","1024","2","3.503999948501587","48000","-16","C:\Users\yarbus\AppData\Local\Temp\tmpvzxioa4h.opensesame_pool\04_banana.ogg","pants","videogame","banana","clothes","pants","videogame","banana","clothes","experiment","banana","2","even","2500","TL","476772.0","C:\Users\yarbus\Desktop\Team Cat\visual-word-paradigm\temp","134610","192822","470488","131475","470488","131516","192822","470429","478772","NA","476721","131491","471532","470465","470407","NA","472615","214403","470455","131478","experiment-visual-word-paradigm","478772.0","ate","1770","wolf.mp4","1920"
"32_flowers.ogg","white","legacy","True","C:\Users\yarbus\Desktop\Team Cat\visual-word-paradigm\temp","legacy","legacy","motion","C:\Users\yarbus\Desktop\Team Cat\visual-word-paradigm\config.yml","0","0","29","0","29","0","0","29","29","0","29","0","29","29","29","0","29","0","29","0","9.300928985859542","50","Fri Jul 12 13:57:14 2024","20","The main experiment item","False","3691.999912261963","214402","pygame-experiment-visual-world-paradigm.osexp","C:\Users\yarbus\Desktop\Team Cat\visual-word-paradigm","black","0","0","medium-open","1000","False","mono","False","32","no","black","no","yes","1080","32","Look at the screen and listen carefully. press any key to continue","True","mono","black","32","None","None","c","legacy","-1","chicken","29","29","garden","C:/Users/yarbus/Desktop/Team Cat/visual-word-paradigm/trials/subject-2.csv","2000","legacy","Melodramatic Milgram","4.0.13","False","mono","black","32","None","380","Pause. Look at the fixation dot in order to continue.","30000","-480","480","-480","480","270","270","-270","-270","1000","0","2","legacy","In the garden, the girl planted flowers.","500","1024","2","3.191999912261963","48000","-16","C:\Users\yarbus\AppData\Local\Temp\tmpvzxioa4h.opensesame_pool\32_flowers.ogg","nailclipper","beer","baggage","flowers","nailclipper","beer","baggage","flowers","experiment","flowers","2","even","2155","TR","484831.0","C:\Users\yarbus\Desktop\Team Cat\visual-word-paradigm\temp","134610","192822","478883","131475","478883","131516","192822","478825","486892","NA","484784","131491","479930","478855","478785","NA","481021","214403","478848","131478","experiment-visual-word-paradigm","486831.0","planted","1771","wolf.mp4","1920"
"28_rollercoaster.ogg","white","legacy","True","C:\Users\yarbus\Desktop\Team Cat\visual-word-paradigm\temp","legacy","legacy","motion","C:\Users\yarbus\Desktop\Team Cat\visual-word-paradigm\config.yml","0","0","30","0","30","0","0","30","30","0","30","0","30","30","30","0","30","0","30","0","43.575240771796054","50","Fri Jul 12 13:57:14 2024","20","The main experiment item","False","4292.00005531311","214402","pygame-experiment-visual-world-paradigm.osexp","C:\Users\yarbus\Desktop\Team Cat\visual-word-paradigm","black","0","0","medium-open","1000","False","mono","False","32","no","black","no","yes","1080","28","Look at the screen and listen carefully. press any key to continue","True","mono","black","32","None","None","c","legacy","-1","chicken","30","30","carnival","C:/Users/yarbus/Desktop/Team Cat/visual-word-paradigm/trials/subject-2.csv","2000","legacy","Melodramatic Milgram","4.0.13","False","mono","black","32","None","380","Pause. Look at the fixation dot in order to continue.","30000","-480","480","-480","480","270","270","-270","-270","1000","0","2","legacy","At the carnival, the girl rode a roller coaster.","500","1024","2","3.7920000553131104","48000","-16","C:\Users\yarbus\AppData\Local\Temp\tmpvzxioa4h.opensesame_pool\28_rollercoaster.ogg","picnic","bust","videogame","rollercoaster","picnic","bust","videogame","rollercoaster","experiment","rollercoaster","2","even","2229","TR","493557.0","C:\Users\yarbus\Desktop\Team Cat\visual-word-paradigm\temp","134610","192822","486975","131475","486975","131516","192822","486917","495564","NA","493506","131491","488019","486942","486895","NA","489090","214403","486940","131478","experiment-visual-word-paradigm","495557.0","rode","1651","wolf.mp4","1920"
"39_clothes.ogg","white","legacy","True","C:\Users\yarbus\Desktop\Team Cat\visual-word-paradigm\temp","legacy","legacy","static","C:\Users\yarbus\Desktop\Team Cat\visual-word-paradigm\config.yml","0","0","31","0","31","0","0","31","31","0","31","0","31","31","31","0","31","0","31","0","40.44318299046209","50","Fri Jul 12 13:57:14 2024","20","The main experiment item","False","4243.99995803833","214402","pygame-experiment-visual-world-paradigm.osexp","C:\Users\yarbus\Desktop\Team Cat\visual-word-paradigm","black","0","0","medium-open","1000","False","mono","False","32","no","black","no","yes","1080","39","Look at the screen and listen carefully. press any key to continue","True","mono","black","32","None","None","c","legacy","-1","chicken","31","31","laundromat","C:/Users/yarbus/Desktop/Team Cat/visual-word-paradigm/trials/subject-2.csv","2000","legacy","Melodramatic Milgram","4.0.13","False","mono","black","32","None","380","Pause. Look at the fixation dot in order to continue.","30000","-480","480","-480","480","270","270","-270","-270","1000","0","2","legacy","At the laundromat, the girl washed her clothes.","500","1024","2","3.74399995803833","48000","-16","C:\Users\yarbus\AppData\Local\Temp\tmpvzxioa4h.opensesame_pool\39_clothes.ogg","clothes","bookshelf","horse","armchair","clothes","bookshelf","horse","armchair","experiment","clothes","2","even","2812","BL","502133.0","C:\Users\yarbus\Desktop\Team Cat\visual-word-paradigm\temp","134610","192822","495670","131475","495670","131516","192822","495610","504170","NA","502089","131491","496717","495643","495577","NA","497787","214403","495633","131478","experiment-visual-word-paradigm","504133.0","washed","2027","wolf.mp4","1920"
"01_apple.ogg","white","legacy","True","C:\Users\yarbus\Desktop\Team Cat\visual-word-paradigm\temp","legacy","legacy","motion","C:\Users\yarbus\Desktop\Team Cat\visual-word-paradigm\config.yml","0","0","32","0","32","0","0","32","32","0","32","0","32","32","32","0","32","0","32","0","22.724797028796534","50","Fri Jul 12 13:57:14 2024","20","The main experiment item","False","3835.9999656677246","214402","pygame-experiment-visual-world-paradigm.osexp","C:\Users\yarbus\Desktop\Team Cat\visual-word-paradigm","black","0","0","medium-open","1000","False","mono","False","32","no","black","no","yes","1080","1","Look at the screen and listen carefully. press any key to continue","True","mono","black","32","None","None","c","legacy","-1","chicken","32","32","breakfast","C:/Users/yarbus/Desktop/Team Cat/visual-word-paradigm/trials/subject-2.csv","2000","legacy","Melodramatic Milgram","4.0.13","False","mono","black","32","None","380","Pause. Look at the fixation dot in order to continue.","30000","-480","480","-480","480","270","270","-270","-270","1000","0","2","legacy"," At breakfast, I usually eat an apple.","500","1024","2","3.3359999656677246","48000","-16","C:\Users\yarbus\AppData\Local\Temp\tmpvzxioa4h.opensesame_pool\01_apple.ogg","pool","wolf","apple","archery","pool","wolf","apple","archery","experiment","apple","2","even","2696","TL","510379.0","C:\Users\yarbus\Desktop\Team Cat\visual-word-paradigm\temp","134610","192822","504259","131475","504259","131516","192822","504199","512379","NA","510334","131491","505290","504231","504172","NA","506361","214403","504222","131478","experiment-visual-word-paradigm","512379.0","eat","1657","wolf.mp4","1920"
"07_clothes.ogg","white","legacy","True","C:\Users\yarbus\Desktop\Team Cat\visual-word-paradigm\temp","legacy","legacy","motion","C:\Users\yarbus\Desktop\Team Cat\visual-word-paradigm\config.yml","0","0","33","0","33","0","0","33","33","0","33","0","33","33","33","0","33","0","33","0","48.04595697454678","50","Fri Jul 12 13:57:14 2024","20","The main experiment item","False","4388.000011444092","214402","pygame-experiment-visual-world-paradigm.osexp","C:\Users\yarbus\Desktop\Team Cat\visual-word-paradigm","black","0","0","medium-open","1000","False","mono","False","32","no","black","no","yes","1080","7","Look at the screen and listen carefully. press any key to continue","True","mono","black","32","None","None","c","legacy","-1","chicken","33","33","shopping mall","C:/Users/yarbus/Desktop/Team Cat/visual-word-paradigm/trials/subject-2.csv","2000","legacy","Melodramatic Milgram","4.0.13","False","mono","black","32","None","380","Pause. Look at the fixation dot in order to continue.","30000","-480","480","-480","480","270","270","-270","-270","1000","0","2","legacy","In the shopping mall, the girl shopped for clothes.","500","1024","2","3.888000011444092","48000","-16","C:\Users\yarbus\AppData\Local\Temp\tmpvzxioa4h.opensesame_pool\07_clothes.ogg","CD","flowers","clothes","cellphone","CD","flowers","clothes","cellphone","experiment","clothes","2","even","2579","TL","519140.0","C:\Users\yarbus\Desktop\Team Cat\visual-word-paradigm\temp","134610","192822","512478","131475","512478","131516","192822","512412","521552","NA","519100","131491","513514","512446","512383","NA","514577","214403","512435","131478","experiment-visual-word-paradigm","521140.0","shopped","1703","wolf.mp4","1920"
"25_dishes.ogg","white","legacy","True","C:\Users\yarbus\Desktop\Team Cat\visual-word-paradigm\temp","legacy","legacy","motion","C:\Users\yarbus\Desktop\Team Cat\visual-word-paradigm\config.yml","0","0","34","0","34","0","0","34","34","0","34","0","34","34","34","0","34","0","34","0","46.47205969354058","50","Fri Jul 12 13:57:14 2024","20","The main experiment item","False","3691.999912261963","214402","pygame-experiment-visual-world-paradigm.osexp","C:\Users\yarbus\Desktop\Team Cat\visual-word-paradigm","black","0","0","medium-open","1000","False","mono","False","32","no","black","no","yes","1080","25","Look at the screen and listen carefully. press any key to continue","True","mono","black","32","None","None","c","legacy","-1","chicken","34","34","kitchen","C:/Users/yarbus/Desktop/Team Cat/visual-word-paradigm/trials/subject-2.csv","2000","legacy","Melodramatic Milgram","4.0.13","False","mono","black","32","None","380","Pause. Look at the fixation dot in order to continue.","30000","-480","480","-480","480","270","270","-270","-270","1000","0","2","legacy","In the kitchen, the girl washed dishes.","500","1024","2","3.191999912261963","48000","-16","C:\Users\yarbus\AppData\Local\Temp\tmpvzxioa4h.opensesame_pool\25_dishes.ogg","pacifier","seashells","cigarette","dishes","pacifier","seashells","cigarette","dishes","experiment","dishes","2","even","2151","TR","527593.0","C:\Users\yarbus\Desktop\Team Cat\visual-word-paradigm\temp","134610","192822","521638","131475","521638","131516","192822","521580","529593","NA","527545","131491","522683","521615","521556","NA","523773","214403","521603","131478","experiment-visual-word-paradigm","529593.0","washed","1440","wolf.mp4","1920"
"56_marshmallows.ogg","white","legacy","True","C:\Users\yarbus\Desktop\Team Cat\visual-word-paradigm\temp","legacy","legacy","static","C:\Users\yarbus\Desktop\Team Cat\visual-word-paradigm\config.yml","0","0","35","0","35","0","0","35","35","0","35","0","35","35","35","0","35","0","35","0","29.357636245447306","50","Fri Jul 12 13:57:14 2024","20","The main experiment item","False","4507.999897003174","214402","pygame-experiment-visual-world-paradigm.osexp","C:\Users\yarbus\Desktop\Team Cat\visual-word-paradigm","black","0","0","medium-open","1000","False","mono","False","32","no","black","no","yes","1080","56","Look at the screen and listen carefully. press any key to continue","True","mono","black","32","None","None","c","legacy","-1","chicken","35","35","campfire","C:/Users/yarbus/Desktop/Team Cat/visual-word-paradigm/trials/subject-2.csv","2000","legacy","Melodramatic Milgram","4.0.13","False","mono","black","32","None","380","Pause. Look at the fixation dot in order to continue.","30000","-480","480","-480","480","270","270","-270","-270","1000","0","2","legacy","At the campfire, the girl roasted marshmallows.","500","1024","2","4.007999897003174","48000","-16","C:\Users\yarbus\AppData\Local\Temp\tmpvzxioa4h.opensesame_pool\56_marshmallows.ogg","card","marshmallow","dice","mouse","card","marshmallow","dice","mouse","experiment","marshmallow","2","even","2892","BR","536437.0","C:\Users\yarbus\Desktop\Team Cat\visual-word-paradigm\temp","134610","192822","529689","131475","529689","131516","192822","529632","538437","NA","536393","131491","530730","529665","529606","NA","531824","214403","529655","131478","experiment-visual-word-paradigm","538437.0","roasted","2167","wolf.mp4","1920"
"22_dog.ogg","white","legacy","True","C:\Users\yarbus\Desktop\Team Cat\visual-word-paradigm\temp","legacy","legacy","motion","C:\Users\yarbus\Desktop\Team Cat\visual-word-paradigm\config.yml","0","0","36","0","36","0","0","36","36","0","36","0","36","36","36","0","36","0","36","0","23.493185163361833","50","Fri Jul 12 13:57:14 2024","20","The main experiment item","False","3523.9999294281006","214402","pygame-experiment-visual-world-paradigm.osexp","C:\Users\yarbus\Desktop\Team Cat\visual-word-paradigm","black","0","0","medium-open","1000","False","mono","False","32","no","black","no","yes","1080","22","Look at the screen and listen carefully. press any key to continue","True","mono","black","32","None","None","c","legacy","-1","chicken","36","36","park","C:/Users/yarbus/Desktop/Team Cat/visual-word-paradigm/trials/subject-2.csv","2000","legacy","Melodramatic Milgram","4.0.13","False","mono","black","32","None","380","Pause. Look at the fixation dot in order to continue.","30000","-480","480","-480","480","270","270","-270","-270","1000","0","2","legacy","At the park, the girl walked a dog. ","500","1024","2","3.0239999294281006","48000","-16","C:\Users\yarbus\AppData\Local\Temp\tmpvzxioa4h.opensesame_pool\22_dog.ogg","calculator","mitten","button","dog","calculator","mitten","button","dog","experiment","dog","2","even","2241","TR","544347.0","C:\Users\yarbus\Desktop\Team Cat\visual-word-paradigm\temp","134610","192822","538520","131475","538520","131516","192822","538461","546347","NA","544297","131491","539565","538495","538439","NA","540682","214403","538484","131478","experiment-visual-word-paradigm","546347.0","walked","1379","wolf.mp4","1920"
"41_drinks.ogg","white","legacy","True","C:\Users\yarbus\Desktop\Team Cat\visual-word-paradigm\temp","legacy","legacy","static","C:\Users\yarbus\Desktop\Team Cat\visual-word-paradigm\config.yml","0","0","37","0","37","0","0","37","37","0","37","0","37","37","37","0","37","0","37","0","48.598509310471655","50","Fri Jul 12 13:57:14 2024","20","The main experiment item","False","4075.999975204468","214402","pygame-experiment-visual-world-paradigm.osexp","C:\Users\yarbus\Desktop\Team Cat\visual-word-paradigm","black","0","0","medium-open","1000","False","mono","False","32","no","black","no","yes","1080","41","Look at the screen and listen carefully. press any key to continue","True","mono","black","32","None","None","c","legacy","-1","chicken","37","37","party","C:/Users/yarbus/Desktop/Team Cat/visual-word-paradigm/trials/subject-2.csv","2000","legacy","Melodramatic Milgram","4.0.13","False","mono","black","32","None","380","Pause. Look at the fixation dot in order to continue.","30000","-480","480","-480","480","270","270","-270","-270","1000","0","2","legacy","At the party, the girl served drinks to the guests.","500","1024","2","3.5759999752044678","48000","-16","C:\Users\yarbus\AppData\Local\Temp\tmpvzxioa4h.opensesame_pool\41_drinks.ogg","drinks","nailclipper","cats","shoppingcart","drinks","nailclipper","cats","shoppingcart","experiment","drinks","2","even","2115","BL","552729.0","C:\Users\yarbus\Desktop\Team Cat\visual-word-paradigm\temp","134610","192822","546437","131475","546437","131516","192822","546378","554837","NA","552675","131491","547466","546402","546350","NA","548542","214403","546401","131478","experiment-visual-word-paradigm","554729.0","served","1333","wolf.mp4","1920"
"13_dice.ogg","white","legacy","True","C:\Users\yarbus\Desktop\Team Cat\visual-word-paradigm\temp","legacy","legacy","motion","C:\Users\yarbus\Desktop\Team Cat\visual-word-paradigm\config.yml","0","0","38","0","38","0","0","38","38","0","38","0","38","38","38","0","38","0","38","0","21.297917644690084","50","Fri Jul 12 13:57:14 2024","20","The main experiment item","False","3644.0000534057617","214402","pygame-experiment-visual-world-paradigm.osexp","C:\Users\yarbus\Desktop\Team Cat\visual-word-paradigm","black","0","0","medium-open","1000","False","mono","False","32","no","black","no","yes","1080","13","Look at the screen and listen carefully. press any key to continue","True","mono","black","32","None","None","c","legacy","-1","chicken","38","38","casino","C:/Users/yarbus/Desktop/Team Cat/visual-word-paradigm/trials/subject-2.csv","2000","legacy","Melodramatic Milgram","4.0.13","False","mono","black","32","None","380","Pause. Look at the fixation dot in order to continue.","30000","-480","480","-480","480","270","270","-270","-270","1000","0","2","legacy","At the casino, the girl threw a dice.","500","1024","2","3.1440000534057617","48000","-16","C:\Users\yarbus\AppData\Local\Temp\tmpvzxioa4h.opensesame_pool\13_dice.ogg","moon","calendar","dice","injection","moon","calendar","dice","injection","experiment","dice","2","even","2221","TL","560924.0","C:\Users\yarbus\Desktop\Team Cat\visual-word-paradigm\temp","134610","192822","554923","131475","554923","131516","192822","554864","563153","NA","560873","131491","555966","554899","554839","NA","557092","214403","554890","131478","experiment-visual-word-paradigm","562924.0","threw","1621","wolf.mp4","1920"
"61_cellphone.ogg","white","legacy","True","C:\Users\yarbus\Desktop\Team Cat\visual-word-paradigm\temp","legacy","legacy","static","C:\Users\yarbus\Desktop\Team Cat\visual-word-paradigm\config.yml","0","0","39","0","39","0","0","39","39","0","39","0","39","39","39","0","39","0","39","0","14.031210376870542","50","Fri Jul 12 13:57:14 2024","20","The main experiment item","False","4868.000030517578","214402","pygame-experiment-visual-world-paradigm.osexp","C:\Users\yarbus\Desktop\Team Cat\visual-word-paradigm","black","0","0","medium-open","1000","False","mono","False","32","no","black","no","yes","1080","61","Look at the screen and listen carefully. press any key to continue","True","mono","black","32","None","None","c","legacy","-1","chicken","39","39","cinema","C:/Users/yarbus/Desktop/Team Cat/visual-word-paradigm/trials/subject-2.csv","2000","legacy","Melodramatic Milgram","4.0.13","False","mono","black","32","None","380","Pause. Look at the fixation dot in order to continue.","30000","-480","480","-480","480","270","270","-270","-270","1000","0","2","legacy","In the cinema, the girl turned off her cellphone.","500","1024","2","4.368000030517578","48000","-16","C:\Users\yarbus\AppData\Local\Temp\tmpvzxioa4h.opensesame_pool\61_cellphone.ogg","documents","cellphone","badminton","bathtub","documents","cellphone","badminton","bathtub","experiment","cellphone","2","even","2297","BR","570358.0","C:\Users\yarbus\Desktop\Team Cat\visual-word-paradigm\temp","134610","192822","563250","131475","563250","131516","192822","563181","572358","NA","570313","131491","564294","563219","563155","NA","565361","214403","563204","131478","experiment-visual-word-paradigm","572358.0","turned off","1473","wolf.mp4","1920"
"50_cactus.ogg","white","legacy","True","C:\Users\yarbus\Desktop\Team Cat\visual-word-paradigm\temp","legacy","legacy","static","C:\Users\yarbus\Desktop\Team Cat\visual-word-paradigm\config.yml","0","0","40","0","40","0","0","40","40","0","40","0","40","40","40","0","40","0","40","0","16.288080947736006","50","Fri Jul 12 13:57:14 2024","20","The main experiment item","False","5179.999828338623","214402","pygame-experiment-visual-world-paradigm.osexp","C:\Users\yarbus\Desktop\Team Cat\visual-word-paradigm","black","0","0","medium-open","1000","False","mono","False","32","no","black","no","yes","1080","50","Look at the screen and listen carefully. press any key to continue","True","mono","black","32","None","None","c","legacy","-1","chicken","40","40","botanical garden","C:/Users/yarbus/Desktop/Team Cat/visual-word-paradigm/trials/subject-2.csv","2000","legacy","Melodramatic Milgram","4.0.13","False","mono","black","32","None","380","Pause. Look at the fixation dot in order to continue.","30000","-480","480","-480","480","270","270","-270","-270","1000","0","2","legacy","In the botanical garden, the girl got stung by a cactus.","500","1024","2","4.679999828338623","48000","-16","C:\Users\yarbus\AppData\Local\Temp\tmpvzxioa4h.opensesame_pool\50_cactus.ogg","card","cactus","bear","pacifier","card","cactus","bear","pacifier","experiment","cactus","2","even","3287","BR","579838.0","C:\Users\yarbus\Desktop\Team Cat\visual-word-paradigm\temp","134610","192822","572449","131475","572449","131516","192822","572386","581838","NA","579803","131491","573489","572421","572361","NA","574553","214403","572409","131478","experiment-visual-word-paradigm","581838.0","stung","2326","wolf.mp4","1920"
"57_trails.ogg","white","legacy","True","C:\Users\yarbus\Desktop\Team Cat\visual-word-paradigm\temp","legacy","legacy","static","C:\Users\yarbus\Desktop\Team Cat\visual-word-paradigm\config.yml","0","0","41","0","41","0","0","41","41","0","41","0","41","41","41","0","41","0","41","0","13.522599377338729","50","Fri Jul 12 13:57:14 2024","20","The main experiment item","False","3859.999895095825","214402","pygame-experiment-visual-world-paradigm.osexp","C:\Users\yarbus\Desktop\Team Cat\visual-word-paradigm","black","0","0","medium-open","1000","False","mono","False","32","no","black","no","yes","1080","57","Look at the screen and listen carefully. press any key to continue","True","mono","black","32","None","None","c","legacy","-1","chicken","41","41","forest","C:/Users/yarbus/Desktop/Team Cat/visual-word-paradigm/trials/subject-2.csv","2000","legacy","Melodramatic Milgram","4.0.13","False","mono","black","32","None","380","Pause. Look at the fixation dot in order to continue.","30000","-480","480","-480","480","270","270","-270","-270","1000","0","2","legacy","In the forest, the girl hiked on trails.","500","1024","2","3.359999895095825","48000","-16","C:\Users\yarbus\AppData\Local\Temp\tmpvzxioa4h.opensesame_pool\57_trails.ogg","bust","hiking","belt","bathtub","bust","hiking","belt","bathtub","experiment","trails","2","even","2394","BR","588034.0","C:\Users\yarbus\Desktop\Team Cat\visual-word-paradigm\temp","134610","192822","581937","131475","581937","131516","192822","581862","604069","NA","587986","131491","582978","581900","581841","NA","584062","214403","581888","131478","experiment-visual-word-paradigm","590034.0","hiked","1349","wolf.mp4","1920"
"54_cd.ogg","white","legacy","True","C:\Users\yarbus\Desktop\Team Cat\visual-word-paradigm\temp","legacy","legacy","static","C:\Users\yarbus\Desktop\Team Cat\visual-word-paradigm\config.yml","0","0","42","0","42","0","0","42","42","0","42","0","42","42","42","0","42","0","42","0","17.270169370333385","50","Fri Jul 12 13:57:14 2024","20","The main experiment item","False","4099.999904632568","214402","pygame-experiment-visual-world-paradigm.osexp","C:\Users\yarbus\Desktop\Team Cat\visual-word-paradigm","black","0","0","medium-open","1000","False","mono","False","32","no","black","no","yes","1080","54","Look at the screen and listen carefully. press any key to continue","True","mono","black","32","None","None","c","legacy","-1","chicken","42","42","car","C:/Users/yarbus/Desktop/Team Cat/visual-word-paradigm/trials/subject-2.csv","2000","legacy","Melodramatic Milgram","4.0.13","False","mono","black","32","None","380","Pause. Look at the fixation dot in order to continue.","30000","-480","480","-480","480","270","270","-270","-270","1000","0","2","legacy","In the car, the girl listened to a CD.","500","1024","2","3.5999999046325684","48000","-16","C:\Users\yarbus\AppData\Local\Temp\tmpvzxioa4h.opensesame_pool\54_cd.ogg","moon","cd","ceilingfan","brick","moon","cd","ceilingfan","brick","experiment","cd","2","even","2643","BR","610478.0","C:\Users\yarbus\Desktop\Team Cat\visual-word-paradigm\temp","134610","192822","604169","131475","604169","131516","192822","604106","612478","NA","610425","131491","605209","604142","604073","NA","606268","214403","604129","131478","experiment-visual-word-paradigm","612478.0","listened","1529","wolf.mp4","1920"
"43_car.ogg","white","legacy","True","C:\Users\yarbus\Desktop\Team Cat\visual-word-paradigm\temp","legacy","legacy","static","C:\Users\yarbus\Desktop\Team Cat\visual-word-paradigm\config.yml","0","0","43","0","43","0","0","43","43","0","43","0","43","43","43","0","43","0","43","0","15.205479517594924","50","Fri Jul 12 13:57:14 2024","20","The main experiment item","False","3956.0000896453857","214402","pygame-experiment-visual-world-paradigm.osexp","C:\Users\yarbus\Desktop\Team Cat\visual-word-paradigm","black","0","0","medium-open","1000","False","mono","False","32","no","black","no","yes","1080","43","Look at the screen and listen carefully. press any key to continue","True","mono","black","32","None","None","c","legacy","-1","chicken","43","43","garage","C:/Users/yarbus/Desktop/Team Cat/visual-word-paradigm/trials/subject-2.csv","2000","legacy","Melodramatic Milgram","4.0.13","False","mono","black","32","None","380","Pause. Look at the fixation dot in order to continue.","30000","-480","480","-480","480","270","270","-270","-270","1000","0","2","legacy","In the garage, the girl washed her car.","500","1024","2","3.4560000896453857","48000","-16","C:\Users\yarbus\AppData\Local\Temp\tmpvzxioa4h.opensesame_pool\43_car.ogg","car","cd","brainmodel","bear","car","cd","brainmodel","bear","experiment","car","2","even","2227","BL","618770.0","C:\Users\yarbus\Desktop\Team Cat\visual-word-paradigm\temp","134610","192822","612604","131475","612604","131516","192822","612532","620770","NA","618728","131491","613651","612567","612491","NA","614696","214403","612555","131478","experiment-visual-word-paradigm","620770.0","washed","1398","wolf.mp4","1920"
"46_badminton.ogg","white","legacy","True","C:\Users\yarbus\Desktop\Team Cat\visual-word-paradigm\temp","legacy","legacy","static","C:\Users\yarbus\Desktop\Team Cat\visual-word-paradigm\config.yml","0","0","44","0","44","0","0","44","44","0","44","0","44","44","44","0","44","0","44","0","19.381455103268134","50","Fri Jul 12 13:57:14 2024","20","The main experiment item","False","3931.999921798706","214402","pygame-experiment-visual-world-paradigm.osexp","C:\Users\yarbus\Desktop\Team Cat\visual-word-paradigm","black","0","0","medium-open","1000","False","mono","False","32","no","black","no","yes","1080","46","Look at the screen and listen carefully. press any key to continue","True","mono","black","32","None","None","c","legacy","-1","chicken","44","44","stadium","C:/Users/yarbus/Desktop/Team Cat/visual-word-paradigm/trials/subject-2.csv","2000","legacy","Melodramatic Milgram","4.0.13","False","mono","black","32","None","380","Pause. Look at the fixation dot in order to continue.","30000","-480","480","-480","480","270","270","-270","-270","1000","0","2","legacy","At the stadium, the girl played badminton.","500","1024","2","3.431999921798706","48000","-16","C:\Users\yarbus\AppData\Local\Temp\tmpvzxioa4h.opensesame_pool\46_badminton.ogg","badminton","cactus","ceilingfan","dishes","badminton","cactus","ceilingfan","dishes","experiment","badminton","2","even","2416","BL","626997.0","C:\Users\yarbus\Desktop\Team Cat\visual-word-paradigm\temp","134610","192822","620858","131475","620858","131516","192822","620794","628997","NA","626945","131491","621910","620820","620771","NA","622954","214403","620820","131478","experiment-visual-word-paradigm","628997.0","played","1705","wolf.mp4","1920"
"14_card.ogg","white","legacy","True","C:\Users\yarbus\Desktop\Team Cat\visual-word-paradigm\temp","legacy","legacy","motion","C:\Users\yarbus\Desktop\Team Cat\visual-word-paradigm\config.yml","0","0","45","0","45","0","0","45","45","0","45","0","45","45","45","0","45","0","45","0","41.84324298139424","50","Fri Jul 12 13:57:14 2024","20","The main experiment item","False","4075.999975204468","214402","pygame-experiment-visual-world-paradigm.osexp","C:\Users\yarbus\Desktop\Team Cat\visual-word-paradigm","black","0","0","medium-open","1000","False","mono","False","32","no","black","no","yes","1080","14","Look at the screen and listen carefully. press any key to continue","True","mono","black","32","None","None","c","legacy","-1","chicken","45","45","casino","C:/Users/yarbus/Desktop/Team Cat/visual-word-paradigm/trials/subject-2.csv","2000","legacy","Melodramatic Milgram","4.0.13","False","mono","black","32","None","380","Pause. Look at the fixation dot in order to continue.","30000","-480","480","-480","480","270","270","-270","-270","1000","0","2","legacy","At the casino, the girl picked a card. ","500","1024","2","3.5759999752044678","48000","-16","C:\Users\yarbus\AppData\Local\Temp\tmpvzxioa4h.opensesame_pool\14_card.ogg","vegetables","sandcastle","card","parkfountain","vegetables","sandcastle","card","parkfountain","experiment","card","2","even","2672","TL","635382.0","C:\Users\yarbus\Desktop\Team Cat\visual-word-paradigm\temp","134610","192822","629094","131475","629094","131516","192822","629030","637382","NA","635340","131491","630133","629063","628999","NA","631205","214403","629053","131478","experiment-visual-word-paradigm","637382.0","picked","2075","wolf.mp4","1920"
"33_movie.ogg","white","legacy","True","C:\Users\yarbus\Desktop\Team Cat\visual-word-paradigm\temp","legacy","legacy","static","C:\Users\yarbus\Desktop\Team Cat\visual-word-paradigm\config.yml","0","0","46","0","46","0","0","46","46","0","46","0","46","46","46","0","46","0","46","0","31.117130561798174","50","Fri Jul 12 13:57:14 2024","20","The main experiment item","False","4220.0000286102295","214402","pygame-experiment-visual-world-paradigm.osexp","C:\Users\yarbus\Desktop\Team Cat\visual-word-paradigm","black","0","0","medium-open","1000","False","mono","False","32","no","black","no","yes","1080","33","Look at the screen and listen carefully. press any key to continue","True","mono","black","32","None","None","c","legacy","-1","chicken","46","46","cinema","C:/Users/yarbus/Desktop/Team Cat/visual-word-paradigm/trials/subject-2.csv","2000","legacy","Melodramatic Milgram","4.0.13","False","mono","black","32","None","380","Pause. Look at the fixation dot in order to continue.","30000","-480","480","-480","480","270","270","-270","-270","1000","0","2","legacy","At the cinema, the girl watched a movie.","500","1024","2","3.7200000286102295","48000","-16","C:\Users\yarbus\AppData\Local\Temp\tmpvzxioa4h.opensesame_pool\33_movie.ogg","movie","button","pants","battleship","movie","button","pants","battleship","experiment","movie","2","even","2212","BL","643896.0","C:\Users\yarbus\Desktop\Team Cat\visual-word-paradigm\temp","134610","192822","637464","131475","637465","131516","192822","637406","645896","NA","643847","131491","638508","637430","637383","NA","639573","214403","637429","131478","experiment-visual-word-paradigm","645896.0","watched","1562","wolf.mp4","1920"
"48_cigarette.ogg","white","legacy","True","C:\Users\yarbus\Desktop\Team Cat\visual-word-paradigm\temp","legacy","legacy","static","C:\Users\yarbus\Desktop\Team Cat\visual-word-paradigm\config.yml","0","0","47","0","47","0","0","47","47","0","47","0","47","47","47","0","47","0","47","0","44.17515731177426","50","Fri Jul 12 13:57:14 2024","20","The main experiment item","False","4003.999948501587","214402","pygame-experiment-visual-world-paradigm.osexp","C:\Users\yarbus\Desktop\Team Cat\visual-word-paradigm","black","0","0","medium-open","1000","False","mono","False","32","no","black","no","yes","1080","48","Look at the screen and listen carefully. press any key to continue","True","mono","black","32","None","None","c","legacy","-1","chicken","47","47","terrace","C:/Users/yarbus/Desktop/Team Cat/visual-word-paradigm/trials/subject-2.csv","2000","legacy","Melodramatic Milgram","4.0.13","False","mono","black","32","None","380","Pause. Look at the fixation dot in order to continue.","30000","-480","480","-480","480","270","270","-270","-270","1000","0","2","legacy","On the terrace, the girl smoked a cigarette.","500","1024","2","3.503999948501587","48000","-16","C:\Users\yarbus\AppData\Local\Temp\tmpvzxioa4h.opensesame_pool\48_cigarette.ogg","cigarette","bicycle","fishing","car","cigarette","bicycle","fishing","car","experiment","cigarette","2","even","2273","BL","652247.0","C:\Users\yarbus\Desktop\Team Cat\visual-word-paradigm\temp","134610","192822","646041","131475","646041","131516","192822","645962","654269","NA","652201","131491","647095","646006","645925","NA","648145","214403","645991","131478","experiment-visual-word-paradigm","654247.0","smoked","1546","wolf.mp4","1920"
"64_cats.ogg","white","legacy","True","C:\Users\yarbus\Desktop\Team Cat\visual-word-paradigm\temp","legacy","legacy","static","C:\Users\yarbus\Desktop\Team Cat\visual-word-paradigm\config.yml","0","0","48","0","48","0","0","48","48","0","48","0","48","48","48","0","48","0","48","0","39.585066147727986","50","Fri Jul 12 13:57:14 2024","20","The main experiment item","False","4676.000118255615","214402","pygame-experiment-visual-world-paradigm.osexp","C:\Users\yarbus\Desktop\Team Cat\visual-word-paradigm","black","0","0","medium-open","1000","False","mono","False","32","no","black","no","yes","1080","64","Look at the screen and listen carefully. press any key to continue","True","mono","black","32","None","None","c","legacy","-1","chicken","48","48","pet store","C:/Users/yarbus/Desktop/Team Cat/visual-word-paradigm/trials/subject-2.csv","2000","legacy","Melodramatic Milgram","4.0.13","False","mono","black","32","None","380","Pause. Look at the fixation dot in order to continue.","30000","-480","480","-480","480","270","270","-270","-270","1000","0","2","legacy","At the pet store, the girl cuddled with adorable cats.","500","1024","2","4.176000118255615","48000","-16","C:\Users\yarbus\AppData\Local\Temp\tmpvzxioa4h.opensesame_pool\64_cats.ogg","battery","cats","paperairplane","ceilingfan","battery","cats","paperairplane","ceilingfan","experiment","cats","2","even","3384","BR","661233.0","C:\Users\yarbus\Desktop\Team Cat\visual-word-paradigm\temp","134610","192822","654356","131475","654356","131516","192822","654296","663295","NA","661192","131491","655399","654328","654271","NA","656463","214403","654319","131478","experiment-visual-word-paradigm","663233.0","cuddled","1510","wolf.mp4","1920"
"16_mouse.ogg","white","legacy","True","C:\Users\yarbus\Desktop\Team Cat\visual-word-paradigm\temp","legacy","legacy","motion","C:\Users\yarbus\Desktop\Team Cat\visual-word-paradigm\config.yml","0","0","49","0","49","0","0","49","49","0","49","0","49","49","49","0","49","0","49","0","45.417169703098","50","Fri Jul 12 13:57:14 2024","20","The main experiment item","False","3740.000009536743","214402","pygame-experiment-visual-world-paradigm.osexp","C:\Users\yarbus\Desktop\Team Cat\visual-word-paradigm","black","0","0","medium-open","1000","False","mono","False","32","no","black","no","yes","1080","16","Look at the screen and listen carefully. press any key to continue","True","mono","black","32","None","None","c","legacy","-1","chicken","49","49","desk","C:/Users/yarbus/Desktop/Team Cat/visual-word-paradigm/trials/subject-2.csv","2000","legacy","Melodramatic Milgram","4.0.13","False","mono","black","32","None","380","Pause. Look at the fixation dot in order to continue.","30000","-480","480","-480","480","270","270","-270","-270","1000","0","2","legacy","At her desk, the girl clicked the mouse. ","500","1024","2","3.240000009536743","48000","-16","C:\Users\yarbus\AppData\Local\Temp\tmpvzxioa4h.opensesame_pool\16_mouse.ogg","moon","button","mouse","ceilingfan","moon","button","mouse","ceilingfan","experiment","mouse","2","even","2425","TL","669456.0","C:\Users\yarbus\Desktop\Team Cat\visual-word-paradigm\temp","134610","192822","663394","131475","663394","131516","192822","663332","671497","NA","669403","131491","664450","663364","663296","NA","665605","214403","663354","131478","experiment-visual-word-paradigm","671456.0","clicked","1427","wolf.mp4","1920"
"09_cello.ogg","white","legacy","True","C:\Users\yarbus\Desktop\Team Cat\visual-word-paradigm\temp","legacy","legacy","motion","C:\Users\yarbus\Desktop\Team Cat\visual-word-paradigm\config.yml","0","0","50","0","50","0","0","50","50","0","50","0","50","50","50","0","50","0","50","0","30.925234434034618","50","Fri Jul 12 13:57:14 2024","20","The main experiment item","False","4052.000045776367","214402","pygame-experiment-visual-world-paradigm.osexp","C:\Users\yarbus\Desktop\Team Cat\visual-word-paradigm","black","0","0","medium-open","1000","False","mono","False","32","no","black","no","yes","1080","9","Look at the screen and listen carefully. press any key to continue","True","mono","black","32","None","None","c","legacy","-1","chicken","50","50","musical class","C:/Users/yarbus/Desktop/Team Cat/visual-word-paradigm/trials/subject-2.csv","2000","legacy","Melodramatic Milgram","4.0.13","False","mono","black","32","None","380","Pause. Look at the fixation dot in order to continue.","30000","-480","480","-480","480","270","270","-270","-270","1000","0","2","legacy","During musical class, the girl played the cello. ","500","1024","2","3.552000045776367","48000","-16","C:\Users\yarbus\AppData\Local\Temp\tmpvzxioa4h.opensesame_pool\09_cello.ogg","soccer","brick","cello","pencilsharpener","soccer","brick","cello","pencilsharpener","experiment","cello","2","even","2260","TL","677890.0","C:\Users\yarbus\Desktop\Team Cat\visual-word-paradigm\temp","134610","192822","671584","131475","671584","131516","192822","671526","679890","NA","677834","131491","672631","671554","671499","NA","673694","214403","671552","131478","experiment-visual-word-paradigm","679890.0","played","1856","wolf.mp4","1920"
"21_kite.ogg","white","legacy","True","C:\Users\yarbus\Desktop\Team Cat\visual-word-paradigm\temp","legacy","legacy","motion","C:\Users\yarbus\Desktop\Team Cat\visual-word-paradigm\config.yml","0","0","51","0","51","0","0","51","51","0","51","0","51","51","51","0","51","0","51","0","48.70875938801976","50","Fri Jul 12 13:57:14 2024","20","The main experiment item","False","3884.000062942505","214402","pygame-experiment-visual-world-paradigm.osexp","C:\Users\yarbus\Desktop\Team Cat\visual-word-paradigm","black","0","0","medium-open","1000","False","mono","False","32","no","black","no","yes","1080","21","Look at the screen and listen carefully. press any key to continue","True","mono","black","32","None","None","c","legacy","-1","chicken","51","51","park","C:/Users/yarbus/Desktop/Team Cat/visual-word-paradigm/trials/subject-2.csv","2000","legacy","Melodramatic Milgram","4.0.13","False","mono","black","32","None","380","Pause. Look at the fixation dot in order to continue.","30000","-480","480","-480","480","270","270","-270","-270","1000","0","2","legacy","At the park, the girl flew a kite.","500","1024","2","3.384000062942505","48000","-16","C:\Users\yarbus\AppData\Local\Temp\tmpvzxioa4h.opensesame_pool\21_kite.ogg","cake","pool","blood","kite","cake","pool","blood","kite","experiment","kite","2","even","2440","TR","686133.0","C:\Users\yarbus\Desktop\Team Cat\visual-word-paradigm\temp","134610","192822","679977","131475","679977","131516","192822","679912","688345","NA","686087","131491","681019","679945","679891","NA","682080","214403","679935","131478","experiment-visual-word-paradigm","688133.0","flew","1354","wolf.mp4","1920"
"34_popcorn.ogg","white","legacy","True","C:\Users\yarbus\Desktop\Team Cat\visual-word-paradigm\temp","legacy","legacy","static","C:\Users\yarbus\Desktop\Team Cat\visual-word-paradigm\config.yml","0","0","52","0","52","0","0","52","52","0","52","0","52","52","52","0","52","0","52","0","6.939711117906905","50","Fri Jul 12 13:57:14 2024","20","The main experiment item","False","4003.999948501587","214402","pygame-experiment-visual-world-paradigm.osexp","C:\Users\yarbus\Desktop\Team Cat\visual-word-paradigm","black","0","0","medium-open","1000","False","mono","False","32","no","black","no","yes","1080","34","Look at the screen and listen carefully. press any key to continue","True","mono","black","32","None","None","c","legacy","-1","chicken","52","52","cinema","C:/Users/yarbus/Desktop/Team Cat/visual-word-paradigm/trials/subject-2.csv","2000","legacy","Melodramatic Milgram","4.0.13","False","mono","black","32","None","380","Pause. Look at the fixation dot in order to continue.","30000","-480","480","-480","480","270","270","-270","-270","1000","0","2","legacy","At the cinema, the girl ate popcorn.","500","1024","2","3.503999948501587","48000","-16","C:\Users\yarbus\AppData\Local\Temp\tmpvzxioa4h.opensesame_pool\34_popcorn.ogg","popcorn","dice","fishing","keyboard","popcorn","dice","fishing","keyboard","experiment","popcorn","2","even","2182","BL","694644.0","C:\Users\yarbus\Desktop\Team Cat\visual-word-paradigm\temp","134610","192822","688443","131475","688443","131516","192822","688384","696644","NA","694597","131491","689490","688420","688358","NA","690537","214403","688407","131478","experiment-visual-word-paradigm","696644.0","ate","1685","wolf.mp4","1920"
"11_chicken.ogg","white","legacy","True","C:\Users\yarbus\Desktop\Team Cat\visual-word-paradigm\temp","legacy","legacy","motion","C:\Users\yarbus\Desktop\Team Cat\visual-word-paradigm\config.yml","0","0","53","0","53","0","0","53","53","0","53","0","53","53","53","0","53","0","53","0","31.14762128702608","50","Fri Jul 12 13:57:14 2024","20","The main experiment item","False","3548.0000972747803","214402","pygame-experiment-visual-world-paradigm.osexp","C:\Users\yarbus\Desktop\Team Cat\visual-word-paradigm","black","0","0","medium-open","1000","False","mono","False","32","no","black","no","yes","1080"," ","Look at the screen and listen carefully. press any key to continue","True","mono","black","32","None","None","c","legacy","-1","chicken","53","53","farm","C:/Users/yarbus/Desktop/Team Cat/visual-word-paradigm/trials/subject-2.csv","2000","legacy","Melodramatic Milgram","4.0.13","False","mono","black","32","None","380","Pause. Look at the fixation dot in order to continue.","30000","-480","480","-480","480","270","270","-270","-270","1000","0","2","legacy","At the farm, the girl fed the chicken. ","500","1024","2","3.0480000972747803","48000","-16","C:\Users\yarbus\AppData\Local\Temp\tmpvzxioa4h.opensesame_pool\11_chicken.ogg","shoppingcart","battery","chicken","basketball","shoppingcart","battery","chicken","basketball","experiment","chicken","2","even","2193","TL","702577.0","C:\Users\yarbus\Desktop\Team Cat\visual-word-paradigm\temp","134610","192822","696740","131475","696740","131516","192822","696681","704577","NA","702529","131491","697773","696711","696647","NA","698886","214403","696710","131478","experiment-visual-word-paradigm","704577.0","fed","1607","wolf.mp4","1920"
"38_plants.ogg","white","legacy","True","C:\Users\yarbus\Desktop\Team Cat\visual-word-paradigm\temp","legacy","legacy","static","C:\Users\yarbus\Desktop\Team Cat\visual-word-paradigm\config.yml","0","0","54","0","54","0","0","54","54","0","54","0","54","54","54","0","54","0","54","0","23.793258934412442","50","Fri Jul 12 13:57:14 2024","20","The main experiment item","False","4099.999904632568","214402","pygame-experiment-visual-world-paradigm.osexp","C:\Users\yarbus\Desktop\Team Cat\visual-word-paradigm","black","0","0","medium-open","1000","False","mono","False","32","no","black","no","yes","1080","38","Look at the screen and listen carefully. press any key to continue","True","mono","black","32","None","None","c","legacy","-1","chicken","54","54","backyard","C:/Users/yarbus/Desktop/Team Cat/visual-word-paradigm/trials/subject-2.csv","2000","legacy","Melodramatic Milgram","4.0.13","False","mono","black","32","None","380","Pause. Look at the fixation dot in order to continue.","30000","-480","480","-480","480","270","270","-270","-270","1000","0","2","legacy","In the backyard, the girl watered the plants.","500","1024","2","3.5999999046325684","48000","-16","C:\Users\yarbus\AppData\Local\Temp\tmpvzxioa4h.opensesame_pool\38_plants.ogg","plants","paintcan","brick","calendar","plants","paintcan","brick","calendar","experiment","plants","2","even","2387","BL","710996.0","C:\Users\yarbus\Desktop\Team Cat\visual-word-paradigm\temp","134610","192822","704688","131475","704688","131516","192822","704629","712996","NA","710942","131491","705725","704662","704597","NA","706780","214403","704652","131478","experiment-visual-word-paradigm","712996.0","watered","1510","wolf.mp4","1920"
"26_weights.ogg","white","legacy","True","C:\Users\yarbus\Desktop\Team Cat\visual-word-paradigm\temp","legacy","legacy","motion","C:\Users\yarbus\Desktop\Team Cat\visual-word-paradigm\config.yml","0","0","55","0","55","0","0","55","55","0","55","0","55","55","55","0","55","0","55","0","41.71098502792762","50","Fri Jul 12 13:57:14 2024","20","The main experiment item","False","3907.9999923706055","214402","pygame-experiment-visual-world-paradigm.osexp","C:\Users\yarbus\Desktop\Team Cat\visual-word-paradigm","black","0","0","medium-open","1000","False","mono","False","32","no","black","no","yes","1080","26","Look at the screen and listen carefully. press any key to continue","True","mono","black","32","None","None","c","legacy","-1","chicken","55","55","gym","C:/Users/yarbus/Desktop/Team Cat/visual-word-paradigm/trials/subject-2.csv","2000","legacy","Melodramatic Milgram","4.0.13","False","mono","black","32","None","380","Pause. Look at the fixation dot in order to continue.","30000","-480","480","-480","480","270","270","-270","-270","1000","0","2","legacy","At the gym, the girl lifted weights.","500","1024","2","3.4079999923706055","48000","-16","C:\Users\yarbus\AppData\Local\Temp\tmpvzxioa4h.opensesame_pool\26_weights.ogg","croissant","horse","paintcan","weights","croissant","horse","paintcan","weights","experiment","weights","2","even","2831","TR","719263.0","C:\Users\yarbus\Desktop\Team Cat\visual-word-paradigm\temp","134610","192822","713094","131475","713094","131516","192822","713031","721270","NA","719217","131491","714134","713061","713009","NA","715185","214403","713054","131478","experiment-visual-word-paradigm","721263.0","lifted","1825","wolf.mp4","1920"
"58_fish.ogg","white","legacy","True","C:\Users\yarbus\Desktop\Team Cat\visual-word-paradigm\temp","legacy","legacy","static","C:\Users\yarbus\Desktop\Team Cat\visual-word-paradigm\config.yml","0","0","56","0","56","0","0","56","56","0","56","0","56","56","56","0","56","0","56","0","49.916983307888295","50","Fri Jul 12 13:57:14 2024","20","The main experiment item","False","3691.999912261963","214402","pygame-experiment-visual-world-paradigm.osexp","C:\Users\yarbus\Desktop\Team Cat\visual-word-paradigm","black","0","0","medium-open","1000","False","mono","False","32","no","black","no","yes","1080","58","Look at the screen and listen carefully. press any key to continue","True","mono","black","32","None","None","c","legacy","-1","chicken","56","56","lake","C:/Users/yarbus/Desktop/Team Cat/visual-word-paradigm/trials/subject-2.csv","2000","legacy","Melodramatic Milgram","4.0.13","False","mono","black","32","None","380","Pause. Look at the fixation dot in order to continue.","30000","-480","480","-480","480","270","270","-270","-270","1000","0","2","legacy","At the lake, the girl caught a big fish.","500","1024","2","3.191999912261963","48000","-16","C:\Users\yarbus\AppData\Local\Temp\tmpvzxioa4h.opensesame_pool\58_fish.ogg","blood","fish","boxtruck","mouse","blood","fish","boxtruck","mouse","experiment","fish","2","even","2396","BR","727273.0","C:\Users\yarbus\Desktop\Team Cat\visual-word-paradigm\temp","134610","192822","721354","131475","721354","131516","192822","721294","729273","NA","727227","131491","722402","721320","721273","NA","723472","214403","721320","131478","experiment-visual-word-paradigm","729273.0","caught","1467","wolf.mp4","1920"
