"audio","background","canvas_backend","central_fixation","cfg_temp_dir","clock_backend","color_backend","condition","config_path","count_calibration_pygaze_init","count_check_group_selection","count_define_logging","count_experiment","count_fixation","count_instruction_screen","count_latin_square_group_select","count_logsleep","count_new_logger","count_outro_screen","count_pause","count_preprocess_videos","count_preview","count_pygaze_start_recording","count_pygaze_stop_recording","count_readme","count_sentence","count_trial_loop","count_trial_sequence","count_utils","d","d_to_continue","datetime","delay_logsleep","description","disable_garbage_collection","duration","end_time","experiment_file","experiment_path","fixdot_color","fixdot_posx","fixdot_posy","fixdot_style","fixtime","font_bold","font_family","font_italic","font_size","font_underline","foreground","form_clicks","fullscreen","height","index","inst","inst_cnt","inst_font","inst_font_col","inst_font_size","inst_posx","inst_posy","key","keyboard_backend","latin_group","latin_group_name","live_row","live_row_trial_loop","location_cue","logfile","minpause","mouse_backend","opensesame_codename","opensesame_version","pause_cntr","pause_font","pause_font_col","pause_font_size","pause_posx","pause_posy","pause_text","pausetimeout","posx_sstimBL","posx_sstimBR","posx_sstimTL","posx_sstimTR","posy_sstimBL","posy_sstimBR","posy_sstimTL","posy_sstimTR","prevtime","repeat_cycle","round_decimals","sampler_backend","sentence","sentenceoffset","sound_buf_size","sound_channels","sound_duration_ms","sound_freq","sound_sample_size","src","sstimBL","sstimBR","sstimTL","sstimTR","sstim_bl","sstim_br","sstim_tl","sstim_tr","start","stimulus_name","subject_nr","subject_parity","target_cue_timing","target_pos","tcur","temp_dir","time_calibration_pygaze_init","time_check_group_selection","time_define_logging","time_experiment","time_fixation","time_instruction_screen","time_latin_square_group_select","time_logsleep","time_new_logger","time_outro_screen","time_pause","time_preprocess_videos","time_preview","time_pygaze_start_recording","time_pygaze_stop_recording","time_readme","time_sentence","time_trial_loop","time_trial_sequence","time_utils","title","tmin","verb_cue","verb_cue_timing","video_file","width"
"37_vegetables.ogg","white","legacy","True","C:\Users\yarbus\Desktop\Team Cat\visual-word-paradigm\temp","legacy","legacy","static","C:\Users\yarbus\Desktop\Team Cat\visual-word-paradigm\config.yml","0","0","0","0","0","0","0","0","0","0","0","0","0","0","0","0","0","0","0","0","25.354927899719925","50","Sat Jul 13 15:37:07 2024","20","The main experiment item","False","4003.999948501587","61811","pygame-experiment-visual-world-paradigm.osexp","C:\Users\yarbus\Desktop\Team Cat\visual-word-paradigm","black","0","0","medium-open","1000","False","mono","False","32","no","black","no","yes","1080","37","Look at the screen and listen carefully. press any key to continue","True","mono","black","32","None","None","c","legacy","-1","chicken","0","0","market","C:/Users/yarbus/Desktop/Team Cat/visual-word-paradigm/trials/subject-4.csv","2000","legacy","Melodramatic Milgram","4.0.13","False","mono","black","32","None","380","Pause. Look at the fixation dot in order to continue.","30000","-480","480","-480","480","270","270","-270","-270","1000","0","2","legacy","At the market, the girl bought fresh vegetables.","500","1024","2","3.503999948501587","48000","-16","C:\Users\yarbus\AppData\Local\Temp\tmp8277lc_3.opensesame_pool\37_vegetables.ogg","vegetables","pacifier","duck","bicycle","vegetables","pacifier","duck","bicycle","experiment","vegetables","4","even","2344","BL","81574.0","C:\Users\yarbus\Desktop\Team Cat\visual-word-paradigm\temp","3107","58194","75336","424","75336","651","58194","NA","83729","NA","81515","609","76366","61830","NA","NA","77445","61812","61816","424","experiment-visual-word-paradigm","83574.0","bought","1606","wolf.mp4","1920"
"38_plants.ogg","white","legacy","True","C:\Users\yarbus\Desktop\Team Cat\visual-word-paradigm\temp","legacy","legacy","static","C:\Users\yarbus\Desktop\Team Cat\visual-word-paradigm\config.yml","0","0","1","0","1","0","0","1","1","0","1","0","1","1","1","0","1","0","1","0","28.47919092109188","50","Sat Jul 13 15:37:07 2024","20","The main experiment item","False","4099.999904632568","61811","pygame-experiment-visual-world-paradigm.osexp","C:\Users\yarbus\Desktop\Team Cat\visual-word-paradigm","black","0","0","medium-open","1000","False","mono","False","32","no","black","no","yes","1080","38","Look at the screen and listen carefully. press any key to continue","True","mono","black","32","None","None","c","legacy","-1","chicken","1","1","backyard","C:/Users/yarbus/Desktop/Team Cat/visual-word-paradigm/trials/subject-4.csv","2000","legacy","Melodramatic Milgram","4.0.13","False","mono","black","32","None","380","Pause. Look at the fixation dot in order to continue.","30000","-480","480","-480","480","270","270","-270","-270","1000","0","2","legacy","In the backyard, the girl watered the plants.","500","1024","2","3.5999999046325684","48000","-16","C:\Users\yarbus\AppData\Local\Temp\tmp8277lc_3.opensesame_pool\38_plants.ogg","plants","paintcan","brick","calendar","plants","paintcan","brick","calendar","experiment","plants","4","even","2387","BL","101264.0","C:\Users\yarbus\Desktop\Team Cat\visual-word-paradigm\temp","3107","58194","92959","424","92959","651","58194","83932","103264","NA","101224","609","96020","83956","83748","NA","97067","61812","83955","424","experiment-visual-word-paradigm","103264.0","watered","1510","wolf.mp4","1920"
"58_fish.ogg","white","legacy","True","C:\Users\yarbus\Desktop\Team Cat\visual-word-paradigm\temp","legacy","legacy","static","C:\Users\yarbus\Desktop\Team Cat\visual-word-paradigm\config.yml","0","0","2","0","2","0","0","2","2","0","2","0","2","2","2","0","2","0","2","0","45.20285364620252","50","Sat Jul 13 15:37:07 2024","20","The main experiment item","False","3691.999912261963","61811","pygame-experiment-visual-world-paradigm.osexp","C:\Users\yarbus\Desktop\Team Cat\visual-word-paradigm","black","0","0","medium-open","1000","False","mono","False","32","no","black","no","yes","1080","58","Look at the screen and listen carefully. press any key to continue","True","mono","black","32","None","None","c","legacy","-1","chicken","2","2","lake","C:/Users/yarbus/Desktop/Team Cat/visual-word-paradigm/trials/subject-4.csv","2000","legacy","Melodramatic Milgram","4.0.13","False","mono","black","32","None","380","Pause. Look at the fixation dot in order to continue.","30000","-480","480","-480","480","270","270","-270","-270","1000","0","2","legacy","At the lake, the girl caught a big fish.","500","1024","2","3.191999912261963","48000","-16","C:\Users\yarbus\AppData\Local\Temp\tmp8277lc_3.opensesame_pool\58_fish.ogg","blood","fish","boxtruck","mouse","blood","fish","boxtruck","mouse","experiment","fish","4","even","2396","BR","109371.0","C:\Users\yarbus\Desktop\Team Cat\visual-word-paradigm\temp","3107","58194","103481","424","103481","651","58194","103416","111420","NA","109322","609","104513","103451","103267","NA","105577","61812","103439","424","experiment-visual-word-paradigm","111371.0","caught","1467","wolf.mp4","1920"
"25_dishes.ogg","white","legacy","True","C:\Users\yarbus\Desktop\Team Cat\visual-word-paradigm\temp","legacy","legacy","motion","C:\Users\yarbus\Desktop\Team Cat\visual-word-paradigm\config.yml","0","0","3","0","3","0","0","3","3","0","3","0","3","3","3","0","3","0","3","0","44.48453781169362","50","Sat Jul 13 15:37:07 2024","20","The main experiment item","False","3691.999912261963","61811","pygame-experiment-visual-world-paradigm.osexp","C:\Users\yarbus\Desktop\Team Cat\visual-word-paradigm","black","0","0","medium-open","1000","False","mono","False","32","no","black","no","yes","1080","25","Look at the screen and listen carefully. press any key to continue","True","mono","black","32","None","None","c","legacy","-1","chicken","3","3","kitchen","C:/Users/yarbus/Desktop/Team Cat/visual-word-paradigm/trials/subject-4.csv","2000","legacy","Melodramatic Milgram","4.0.13","False","mono","black","32","None","380","Pause. Look at the fixation dot in order to continue.","30000","-480","480","-480","480","270","270","-270","-270","1000","0","2","legacy","In the kitchen, the girl washed dishes.","500","1024","2","3.191999912261963","48000","-16","C:\Users\yarbus\AppData\Local\Temp\tmp8277lc_3.opensesame_pool\25_dishes.ogg","pacifier","seashells","cigarette","dishes","pacifier","seashells","cigarette","dishes","experiment","dishes","4","even","2151","TR","117688.0","C:\Users\yarbus\Desktop\Team Cat\visual-word-paradigm\temp","3107","58194","111654","424","111654","651","58194","111584","119688","NA","117643","609","112683","111620","111433","NA","113794","61812","111607","424","experiment-visual-word-paradigm","119688.0","washed","1440","wolf.mp4","1920"
"01_apple.ogg","white","legacy","True","C:\Users\yarbus\Desktop\Team Cat\visual-word-paradigm\temp","legacy","legacy","motion","C:\Users\yarbus\Desktop\Team Cat\visual-word-paradigm\config.yml","0","0","4","0","4","0","0","4","4","0","4","0","4","4","4","0","4","0","4","0","44.99000991509114","50","Sat Jul 13 15:37:07 2024","20","The main experiment item","False","3835.9999656677246","61811","pygame-experiment-visual-world-paradigm.osexp","C:\Users\yarbus\Desktop\Team Cat\visual-word-paradigm","black","0","0","medium-open","1000","False","mono","False","32","no","black","no","yes","1080","1","Look at the screen and listen carefully. press any key to continue","True","mono","black","32","None","None","c","legacy","-1","chicken","4","4","breakfast","C:/Users/yarbus/Desktop/Team Cat/visual-word-paradigm/trials/subject-4.csv","2000","legacy","Melodramatic Milgram","4.0.13","False","mono","black","32","None","380","Pause. Look at the fixation dot in order to continue.","30000","-480","480","-480","480","270","270","-270","-270","1000","0","2","legacy"," At breakfast, I usually eat an apple.","500","1024","2","3.3359999656677246","48000","-16","C:\Users\yarbus\AppData\Local\Temp\tmp8277lc_3.opensesame_pool\01_apple.ogg","pool","wolf","apple","archery","pool","wolf","apple","archery","experiment","apple","4","even","2696","TL","126095.0","C:\Users\yarbus\Desktop\Team Cat\visual-word-paradigm\temp","3107","58194","119895","424","119895","651","58194","119830","128212","NA","126056","609","120929","119867","119700","NA","122098","61812","119856","424","experiment-visual-word-paradigm","128095.0","eat","1657","wolf.mp4","1920"
"40_shopping_cart.ogg","white","legacy","True","C:\Users\yarbus\Desktop\Team Cat\visual-word-paradigm\temp","legacy","legacy","static","C:\Users\yarbus\Desktop\Team Cat\visual-word-paradigm\config.yml","0","0","5","0","5","0","0","5","5","0","5","0","5","5","5","0","5","0","5","0","49.6685054673482","50","Sat Jul 13 15:37:07 2024","20","The main experiment item","False","4796.000003814697","61811","pygame-experiment-visual-world-paradigm.osexp","C:\Users\yarbus\Desktop\Team Cat\visual-word-paradigm","black","0","0","medium-open","1000","False","mono","False","32","no","black","no","yes","1080","40","Look at the screen and listen carefully. press any key to continue","True","mono","black","32","None","None","c","legacy","-1","chicken","5","5","grocery store","C:/Users/yarbus/Desktop/Team Cat/visual-word-paradigm/trials/subject-4.csv","2000","legacy","Melodramatic Milgram","4.0.13","False","mono","black","32","None","380","Pause. Look at the fixation dot in order to continue.","30000","-480","480","-480","480","270","270","-270","-270","1000","0","2","legacy","At the grocery store, the girl pushed the shopping cart","500","1024","2","4.296000003814697","48000","-16","C:\Users\yarbus\AppData\Local\Temp\tmp8277lc_3.opensesame_pool\40_shopping_cart.ogg","shoppingcart","nintendods","bulldozer","paperclip","shoppingcart","nintendods","bulldozer","paperclip","experiment","shoppingcart","4","even","3355","BL","135381.0","C:\Users\yarbus\Desktop\Team Cat\visual-word-paradigm\temp","3107","58194","128367","424","128367","651","58194","128313","137439","NA","135326","609","129406","128337","128214","NA","130468","61812","128336","424","experiment-visual-word-paradigm","137381.0","pushed","2390","wolf.mp4","1920"
"44_bathtub.ogg","white","legacy","True","C:\Users\yarbus\Desktop\Team Cat\visual-word-paradigm\temp","legacy","legacy","static","C:\Users\yarbus\Desktop\Team Cat\visual-word-paradigm\config.yml","0","0","6","0","6","0","0","6","6","0","6","0","6","6","6","0","6","0","6","0","41.697736496841166","50","Sat Jul 13 15:37:07 2024","20","The main experiment item","False","4099.999904632568","61811","pygame-experiment-visual-world-paradigm.osexp","C:\Users\yarbus\Desktop\Team Cat\visual-word-paradigm","black","0","0","medium-open","1000","False","mono","False","32","no","black","no","yes","1080","44","Look at the screen and listen carefully. press any key to continue","True","mono","black","32","None","None","c","legacy","-1","chicken","6","6","spa","C:/Users/yarbus/Desktop/Team Cat/visual-word-paradigm/trials/subject-4.csv","2000","legacy","Melodramatic Milgram","4.0.13","False","mono","black","32","None","380","Pause. Look at the fixation dot in order to continue.","30000","-480","480","-480","480","270","270","-270","-270","1000","0","2","legacy","In the spa, the girl relaxed in the bathtub.","500","1024","2","3.5999999046325684","48000","-16","C:\Users\yarbus\AppData\Local\Temp\tmp8277lc_3.opensesame_pool\44_bathtub.ogg","bathtub","wedding","dog","moon","bathtub","wedding","dog","moon","experiment","bathtub","4","even","2713","BL","143947.0","C:\Users\yarbus\Desktop\Team Cat\visual-word-paradigm\temp","3107","58194","137649","424","137649","651","58194","137587","145991","NA","143910","609","138682","137619","137451","NA","139746","61812","137610","424","experiment-visual-word-paradigm","145947.0","relaxed","1683","wolf.mp4","1920"
"18_armchair.ogg","white","legacy","True","C:\Users\yarbus\Desktop\Team Cat\visual-word-paradigm\temp","legacy","legacy","motion","C:\Users\yarbus\Desktop\Team Cat\visual-word-paradigm\config.yml","0","0","7","0","7","0","0","7","7","0","7","0","7","7","7","0","7","0","7","0","39.05668404357948","50","Sat Jul 13 15:37:07 2024","20","The main experiment item","False","3788.0001068115234","61811","pygame-experiment-visual-world-paradigm.osexp","C:\Users\yarbus\Desktop\Team Cat\visual-word-paradigm","black","0","0","medium-open","1000","False","mono","False","32","no","black","no","yes","1080","18","Look at the screen and listen carefully. press any key to continue","True","mono","black","32","None","None","c","legacy","-1","chicken","7","7","living room","C:/Users/yarbus/Desktop/Team Cat/visual-word-paradigm/trials/subject-4.csv","2000","legacy","Melodramatic Milgram","4.0.13","False","mono","black","32","None","380","Pause. Look at the fixation dot in order to continue.","30000","-480","480","-480","480","270","270","-270","-270","1000","0","2","legacy","In the living room, the girl sat in an armchair.","500","1024","2","3.2880001068115234","48000","-16","C:\Users\yarbus\AppData\Local\Temp\tmp8277lc_3.opensesame_pool\18_armchair.ogg","wolf","battleship","frisbee","armchair","wolf","battleship","frisbee","armchair","experiment","armchair","4","even","2048","TR","152251.0","C:\Users\yarbus\Desktop\Team Cat\visual-word-paradigm\temp","3107","58194","146199","424","146199","651","58194","146136","154251","NA","152212","609","147247","146166","146004","NA","148332","61812","146164","424","experiment-visual-word-paradigm","154251.0","sat","1290","wolf.mp4","1920"
"12_egg.ogg","white","legacy","True","C:\Users\yarbus\Desktop\Team Cat\visual-word-paradigm\temp","legacy","legacy","motion","C:\Users\yarbus\Desktop\Team Cat\visual-word-paradigm\config.yml","0","0","8","0","8","0","0","8","8","0","8","0","8","8","8","0","8","0","8","0","25.974599494121197","50","Sat Jul 13 15:37:07 2024","20","The main experiment item","False","3763.9999389648438","61811","pygame-experiment-visual-world-paradigm.osexp","C:\Users\yarbus\Desktop\Team Cat\visual-word-paradigm","black","0","0","medium-open","1000","False","mono","False","32","no","black","no","yes","1080","12","Look at the screen and listen carefully. press any key to continue","True","mono","black","32","None","None","c","legacy","-1","chicken","8","8","farm","C:/Users/yarbus/Desktop/Team Cat/visual-word-paradigm/trials/subject-4.csv","2000","legacy","Melodramatic Milgram","4.0.13","False","mono","black","32","None","380","Pause. Look at the fixation dot in order to continue.","30000","-480","480","-480","480","270","270","-270","-270","1000","0","2","legacy","At the farm, the girl picked the egg. ","500","1024","2","3.2639999389648438","48000","-16","C:\Users\yarbus\AppData\Local\Temp\tmp8277lc_3.opensesame_pool\12_egg.ogg","battery","videogame","egg","oven","battery","videogame","egg","oven","experiment","egg","4","even","2263","TL","160513.0","C:\Users\yarbus\Desktop\Team Cat\visual-word-paradigm\temp","3107","58194","154459","424","154459","651","58194","154396","162513","NA","160467","609","155505","154431","154263","NA","156625","61812","154419","424","experiment-visual-word-paradigm","162513.0","picked","1380","wolf.mp4","1920"
"07_clothes.ogg","white","legacy","True","C:\Users\yarbus\Desktop\Team Cat\visual-word-paradigm\temp","legacy","legacy","motion","C:\Users\yarbus\Desktop\Team Cat\visual-word-paradigm\config.yml","0","0","9","0","9","0","0","9","9","0","9","0","9","9","9","0","9","0","9","0","26.546180308285418","50","Sat Jul 13 15:37:07 2024","20","The main experiment item","False","4388.000011444092","61811","pygame-experiment-visual-world-paradigm.osexp","C:\Users\yarbus\Desktop\Team Cat\visual-word-paradigm","black","0","0","medium-open","1000","False","mono","False","32","no","black","no","yes","1080","7","Look at the screen and listen carefully. press any key to continue","True","mono","black","32","None","None","c","legacy","-1","chicken","9","9","shopping mall","C:/Users/yarbus/Desktop/Team Cat/visual-word-paradigm/trials/subject-4.csv","2000","legacy","Melodramatic Milgram","4.0.13","False","mono","black","32","None","380","Pause. Look at the fixation dot in order to continue.","30000","-480","480","-480","480","270","270","-270","-270","1000","0","2","legacy","In the shopping mall, the girl shopped for clothes.","500","1024","2","3.888000011444092","48000","-16","C:\Users\yarbus\AppData\Local\Temp\tmp8277lc_3.opensesame_pool\07_clothes.ogg","CD","flowers","clothes","cellphone","CD","flowers","clothes","cellphone","experiment","clothes","4","even","2579","TL","169395.0","C:\Users\yarbus\Desktop\Team Cat\visual-word-paradigm\temp","3107","58194","162690","424","162690","651","58194","162626","171395","NA","169356","609","163732","162659","162527","NA","164841","61812","162649","424","experiment-visual-word-paradigm","171395.0","shopped","1703","wolf.mp4","1920"
"35_soccermatch.ogg","white","legacy","True","C:\Users\yarbus\Desktop\Team Cat\visual-word-paradigm\temp","legacy","legacy","static","C:\Users\yarbus\Desktop\Team Cat\visual-word-paradigm\config.yml","0","0","10","0","10","0","0","10","10","0","10","0","10","10","10","0","10","0","10","0","49.764040699284045","50","Sat Jul 13 15:37:07 2024","20","The main experiment item","False","4292.00005531311","61811","pygame-experiment-visual-world-paradigm.osexp","C:\Users\yarbus\Desktop\Team Cat\visual-word-paradigm","black","0","0","medium-open","1000","False","mono","False","32","no","black","no","yes","1080","35","Look at the screen and listen carefully. press any key to continue","True","mono","black","32","None","None","c","legacy","-1","chicken","10","10","stadium","C:/Users/yarbus/Desktop/Team Cat/visual-word-paradigm/trials/subject-4.csv","2000","legacy","Melodramatic Milgram","4.0.13","False","mono","black","32","None","380","Pause. Look at the fixation dot in order to continue.","30000","-480","480","-480","480","270","270","-270","-270","1000","0","2","legacy","At the stadium, the girl watched a soccer match.","500","1024","2","3.7920000553131104","48000","-16","C:\Users\yarbus\AppData\Local\Temp\tmp8277lc_3.opensesame_pool\35_soccermatch.ogg","soccer","parkfountain","bottlecap","nintendods","soccer","parkfountain","bottlecap","nintendods","experiment","soccer","4","even","2580","BL","178131.0","C:\Users\yarbus\Desktop\Team Cat\visual-word-paradigm\temp","3107","58194","171603","424","171603","651","58194","171537","180491","NA","178093","609","172651","171568","171408","NA","173724","61812","171560","424","experiment-visual-word-paradigm","180131.0","watched","1652","wolf.mp4","1920"
"21_kite.ogg","white","legacy","True","C:\Users\yarbus\Desktop\Team Cat\visual-word-paradigm\temp","legacy","legacy","motion","C:\Users\yarbus\Desktop\Team Cat\visual-word-paradigm\config.yml","0","0","11","0","11","0","0","11","11","0","11","0","11","11","11","0","11","0","11","0","29.353632661052377","50","Sat Jul 13 15:37:07 2024","20","The main experiment item","False","3884.000062942505","61811","pygame-experiment-visual-world-paradigm.osexp","C:\Users\yarbus\Desktop\Team Cat\visual-word-paradigm","black","0","0","medium-open","1000","False","mono","False","32","no","black","no","yes","1080","21","Look at the screen and listen carefully. press any key to continue","True","mono","black","32","None","None","c","legacy","-1","chicken","11","11","park","C:/Users/yarbus/Desktop/Team Cat/visual-word-paradigm/trials/subject-4.csv","2000","legacy","Melodramatic Milgram","4.0.13","False","mono","black","32","None","380","Pause. Look at the fixation dot in order to continue.","30000","-480","480","-480","480","270","270","-270","-270","1000","0","2","legacy","At the park, the girl flew a kite.","500","1024","2","3.384000062942505","48000","-16","C:\Users\yarbus\AppData\Local\Temp\tmp8277lc_3.opensesame_pool\21_kite.ogg","cake","pool","blood","kite","cake","pool","blood","kite","experiment","kite","4","even","2440","TR","186863.0","C:\Users\yarbus\Desktop\Team Cat\visual-word-paradigm\temp","3107","58194","180701","424","180701","651","58194","180635","188863","NA","186826","609","181743","180666","180495","NA","182857","61812","180658","424","experiment-visual-word-paradigm","188863.0","flew","1354","wolf.mp4","1920"
"32_flowers.ogg","white","legacy","True","C:\Users\yarbus\Desktop\Team Cat\visual-word-paradigm\temp","legacy","legacy","motion","C:\Users\yarbus\Desktop\Team Cat\visual-word-paradigm\config.yml","0","0","12","0","12","0","0","12","12","0","12","0","12","12","12","0","12","0","12","0","25.10294819976333","50","Sat Jul 13 15:37:07 2024","20","The main experiment item","False","3691.999912261963","61811","pygame-experiment-visual-world-paradigm.osexp","C:\Users\yarbus\Desktop\Team Cat\visual-word-paradigm","black","0","0","medium-open","1000","False","mono","False","32","no","black","no","yes","1080","32","Look at the screen and listen carefully. press any key to continue","True","mono","black","32","None","None","c","legacy","-1","chicken","12","12","garden","C:/Users/yarbus/Desktop/Team Cat/visual-word-paradigm/trials/subject-4.csv","2000","legacy","Melodramatic Milgram","4.0.13","False","mono","black","32","None","380","Pause. Look at the fixation dot in order to continue.","30000","-480","480","-480","480","270","270","-270","-270","1000","0","2","legacy","In the garden, the girl planted flowers.","500","1024","2","3.191999912261963","48000","-16","C:\Users\yarbus\AppData\Local\Temp\tmp8277lc_3.opensesame_pool\32_flowers.ogg","nailclipper","beer","baggage","flowers","nailclipper","beer","baggage","flowers","experiment","flowers","4","even","2155","TR","195019.0","C:\Users\yarbus\Desktop\Team Cat\visual-word-paradigm\temp","3107","58194","189008","424","189008","651","58194","188948","197019","NA","194976","609","190055","188981","188878","NA","191158","61812","188971","424","experiment-visual-word-paradigm","197019.0","planted","1771","wolf.mp4","1920"
"02_horse.ogg","white","legacy","True","C:\Users\yarbus\Desktop\Team Cat\visual-word-paradigm\temp","legacy","legacy","motion","C:\Users\yarbus\Desktop\Team Cat\visual-word-paradigm\config.yml","0","0","13","0","13","0","0","13","13","0","13","0","13","13","13","0","13","0","13","0","7.177013306383083","50","Sat Jul 13 15:37:07 2024","20","The main experiment item","False","3931.999921798706","61811","pygame-experiment-visual-world-paradigm.osexp","C:\Users\yarbus\Desktop\Team Cat\visual-word-paradigm","black","0","0","medium-open","1000","False","mono","False","32","no","black","no","yes","1080","2","Look at the screen and listen carefully. press any key to continue","True","mono","black","32","None","None","c","legacy","-1","chicken","13","13","countryside","C:/Users/yarbus/Desktop/Team Cat/visual-word-paradigm/trials/subject-4.csv","2000","legacy","Melodramatic Milgram","4.0.13","False","mono","black","32","None","380","Pause. Look at the fixation dot in order to continue.","30000","-480","480","-480","480","270","270","-270","-270","1000","0","2","legacy","In the countryside, the girl rode a horse.","500","1024","2","3.431999921798706","48000","-16","C:\Users\yarbus\AppData\Local\Temp\tmp8277lc_3.opensesame_pool\02_horse.ogg","paperclip","oven","horse","novel","paperclip","oven","horse","novel","experiment","horse","4","even","2600","TL","203495.0","C:\Users\yarbus\Desktop\Team Cat\visual-word-paradigm\temp","3107","58194","197255","424","197255","651","58194","197200","205495","NA","203445","609","198296","197226","197030","NA","199393","61812","197224","424","experiment-visual-word-paradigm","205495.0","rode","1655","wolf.mp4","1920"
"59_documents.ogg","white","legacy","True","C:\Users\yarbus\Desktop\Team Cat\visual-word-paradigm\temp","legacy","legacy","static","C:\Users\yarbus\Desktop\Team Cat\visual-word-paradigm\config.yml","0","0","14","0","14","0","0","14","14","0","14","0","14","14","14","0","14","0","14","0","46.853028480131364","50","Sat Jul 13 15:37:07 2024","20","The main experiment item","False","4243.99995803833","61811","pygame-experiment-visual-world-paradigm.osexp","C:\Users\yarbus\Desktop\Team Cat\visual-word-paradigm","black","0","0","medium-open","1000","False","mono","False","32","no","black","no","yes","1080","59","Look at the screen and listen carefully. press any key to continue","True","mono","black","32","None","None","c","legacy","-1","chicken","14","14","office","C:/Users/yarbus/Desktop/Team Cat/visual-word-paradigm/trials/subject-4.csv","2000","legacy","Melodramatic Milgram","4.0.13","False","mono","black","32","None","380","Pause. Look at the fixation dot in order to continue.","30000","-480","480","-480","480","270","270","-270","-270","1000","0","2","legacy","In the office, the girl printed documents. ","500","1024","2","3.74399995803833","48000","-16","C:\Users\yarbus\AppData\Local\Temp\tmp8277lc_3.opensesame_pool\59_documents.ogg","brainmodel","documents","weights","fishing","brainmodel","documents","weights","fishing","experiment","documents","4","even","2487","BR","212221.0","C:\Users\yarbus\Desktop\Team Cat\visual-word-paradigm\temp","3107","58194","205719","424","205719","651","58194","205651","214589","NA","212163","609","206766","205691","205506","NA","207844","61812","205679","424","experiment-visual-word-paradigm","214221.0","printed","1575","wolf.mp4","1920"
"22_dog.ogg","white","legacy","True","C:\Users\yarbus\Desktop\Team Cat\visual-word-paradigm\temp","legacy","legacy","motion","C:\Users\yarbus\Desktop\Team Cat\visual-word-paradigm\config.yml","0","0","15","0","15","0","0","15","15","0","15","0","15","15","15","0","15","0","15","0","28.842956863678122","50","Sat Jul 13 15:37:07 2024","20","The main experiment item","False","3523.9999294281006","61811","pygame-experiment-visual-world-paradigm.osexp","C:\Users\yarbus\Desktop\Team Cat\visual-word-paradigm","black","0","0","medium-open","1000","False","mono","False","32","no","black","no","yes","1080","22","Look at the screen and listen carefully. press any key to continue","True","mono","black","32","None","None","c","legacy","-1","chicken","15","15","park","C:/Users/yarbus/Desktop/Team Cat/visual-word-paradigm/trials/subject-4.csv","2000","legacy","Melodramatic Milgram","4.0.13","False","mono","black","32","None","380","Pause. Look at the fixation dot in order to continue.","30000","-480","480","-480","480","270","270","-270","-270","1000","0","2","legacy","At the park, the girl walked a dog. ","500","1024","2","3.0239999294281006","48000","-16","C:\Users\yarbus\AppData\Local\Temp\tmp8277lc_3.opensesame_pool\22_dog.ogg","calculator","mitten","button","dog","calculator","mitten","button","dog","experiment","dog","4","even","2241","TR","220679.0","C:\Users\yarbus\Desktop\Team Cat\visual-word-paradigm\temp","3107","58194","214817","424","214817","651","58194","214756","222682","NA","220626","609","215854","214779","214591","NA","217004","61812","214779","424","experiment-visual-word-paradigm","222679.0","walked","1379","wolf.mp4","1920"
"61_cellphone.ogg","white","legacy","True","C:\Users\yarbus\Desktop\Team Cat\visual-word-paradigm\temp","legacy","legacy","static","C:\Users\yarbus\Desktop\Team Cat\visual-word-paradigm\config.yml","0","0","16","0","16","0","0","16","16","0","16","0","16","16","16","0","16","0","16","0","48.20950333036011","50","Sat Jul 13 15:37:07 2024","20","The main experiment item","False","4868.000030517578","61811","pygame-experiment-visual-world-paradigm.osexp","C:\Users\yarbus\Desktop\Team Cat\visual-word-paradigm","black","0","0","medium-open","1000","False","mono","False","32","no","black","no","yes","1080","61","Look at the screen and listen carefully. press any key to continue","True","mono","black","32","None","None","c","legacy","-1","chicken","16","16","cinema","C:/Users/yarbus/Desktop/Team Cat/visual-word-paradigm/trials/subject-4.csv","2000","legacy","Melodramatic Milgram","4.0.13","False","mono","black","32","None","380","Pause. Look at the fixation dot in order to continue.","30000","-480","480","-480","480","270","270","-270","-270","1000","0","2","legacy","In the cinema, the girl turned off her cellphone.","500","1024","2","4.368000030517578","48000","-16","C:\Users\yarbus\AppData\Local\Temp\tmp8277lc_3.opensesame_pool\61_cellphone.ogg","documents","cellphone","badminton","bathtub","documents","cellphone","badminton","bathtub","experiment","cellphone","4","even","2297","BR","229956.0","C:\Users\yarbus\Desktop\Team Cat\visual-word-paradigm\temp","3107","58194","222884","424","222884","651","58194","222815","231956","NA","229898","609","223926","222850","222685","NA","224979","61812","222838","424","experiment-visual-word-paradigm","231956.0","turned off","1473","wolf.mp4","1920"
"64_cats.ogg","white","legacy","True","C:\Users\yarbus\Desktop\Team Cat\visual-word-paradigm\temp","legacy","legacy","static","C:\Users\yarbus\Desktop\Team Cat\visual-word-paradigm\config.yml","0","0","17","0","17","0","0","17","17","0","17","0","17","17","17","0","17","0","17","0","26.91413185670315","50","Sat Jul 13 15:37:07 2024","20","The main experiment item","False","4676.000118255615","61811","pygame-experiment-visual-world-paradigm.osexp","C:\Users\yarbus\Desktop\Team Cat\visual-word-paradigm","black","0","0","medium-open","1000","False","mono","False","32","no","black","no","yes","1080","64","Look at the screen and listen carefully. press any key to continue","True","mono","black","32","None","None","c","legacy","-1","chicken","17","17","pet store","C:/Users/yarbus/Desktop/Team Cat/visual-word-paradigm/trials/subject-4.csv","2000","legacy","Melodramatic Milgram","4.0.13","False","mono","black","32","None","380","Pause. Look at the fixation dot in order to continue.","30000","-480","480","-480","480","270","270","-270","-270","1000","0","2","legacy","At the pet store, the girl cuddled with adorable cats.","500","1024","2","4.176000118255615","48000","-16","C:\Users\yarbus\AppData\Local\Temp\tmp8277lc_3.opensesame_pool\64_cats.ogg","battery","cats","paperairplane","ceilingfan","battery","cats","paperairplane","ceilingfan","experiment","cats","4","even","3384","BR","239041.0","C:\Users\yarbus\Desktop\Team Cat\visual-word-paradigm\temp","3107","58194","232131","424","232131","651","58194","232065","241041","NA","238989","609","233173","232102","231958","NA","234252","61812","232092","424","experiment-visual-word-paradigm","241041.0","cuddled","1510","wolf.mp4","1920"
"51_beer.ogg","white","legacy","True","C:\Users\yarbus\Desktop\Team Cat\visual-word-paradigm\temp","legacy","legacy","static","C:\Users\yarbus\Desktop\Team Cat\visual-word-paradigm\config.yml","0","0","18","0","18","0","0","18","18","0","18","0","18","18","18","0","18","0","18","0","26.946408921412896","50","Sat Jul 13 15:37:07 2024","20","The main experiment item","False","3308.000087738037","61811","pygame-experiment-visual-world-paradigm.osexp","C:\Users\yarbus\Desktop\Team Cat\visual-word-paradigm","black","0","0","medium-open","1000","False","mono","False","32","no","black","no","yes","1080","51","Look at the screen and listen carefully. press any key to continue","True","mono","black","32","None","None","c","legacy","-1","chicken","18","18","bar","C:/Users/yarbus/Desktop/Team Cat/visual-word-paradigm/trials/subject-4.csv","2000","legacy","Melodramatic Milgram","4.0.13","False","mono","black","32","None","380","Pause. Look at the fixation dot in order to continue.","30000","-480","480","-480","480","270","270","-270","-270","1000","0","2","legacy","In the bar, the girl drank beer. ","500","1024","2","2.808000087738037","48000","-16","C:\Users\yarbus\AppData\Local\Temp\tmp8277lc_3.opensesame_pool\51_beer.ogg","treadmill","beer","bathtub","plants","treadmill","beer","bathtub","plants","experiment","beer","4","even","2090","BR","246784.0","C:\Users\yarbus\Desktop\Team Cat\visual-word-paradigm\temp","3107","58194","241273","424","241273","651","58194","241210","248784","NA","246743","609","242315","241241","241053","NA","243385","61812","241233","424","experiment-visual-word-paradigm","248784.0","drank","1585","wolf.mp4","1920"
"15_keyboard.ogg","white","legacy","True","C:\Users\yarbus\Desktop\Team Cat\visual-word-paradigm\temp","legacy","legacy","motion","C:\Users\yarbus\Desktop\Team Cat\visual-word-paradigm\config.yml","0","0","19","0","19","0","0","19","19","0","19","0","19","19","19","0","19","0","19","0","46.342051885517485","50","Sat Jul 13 15:37:07 2024","20","The main experiment item","False","4196.000099182129","61811","pygame-experiment-visual-world-paradigm.osexp","C:\Users\yarbus\Desktop\Team Cat\visual-word-paradigm","black","0","0","medium-open","1000","False","mono","False","32","no","black","no","yes","1080","15","Look at the screen and listen carefully. press any key to continue","True","mono","black","32","None","None","c","legacy","-1","chicken","19","19","desk","C:/Users/yarbus/Desktop/Team Cat/visual-word-paradigm/trials/subject-4.csv","2000","legacy","Melodramatic Milgram","4.0.13","False","mono","black","32","None","380","Pause. Look at the fixation dot in order to continue.","30000","-480","480","-480","480","270","270","-270","-270","1000","0","2","legacy","At her desk, the girl typed on the keyboard.","500","1024","2","3.696000099182129","48000","-16","C:\Users\yarbus\AppData\Local\Temp\tmp8277lc_3.opensesame_pool\15_keyboard.ogg","paintcan","sofa","keyboard","bowl","paintcan","sofa","keyboard","bowl","experiment","keyboard","4","even","2111","TL","255481.0","C:\Users\yarbus\Desktop\Team Cat\visual-word-paradigm\temp","3107","58194","248992","424","248992","651","58194","248934","257500","NA","255437","609","250037","248967","248798","NA","251140","61812","248957","424","experiment-visual-word-paradigm","257481.0","typed","1500","wolf.mp4","1920"
"45_basketball.ogg","white","legacy","True","C:\Users\yarbus\Desktop\Team Cat\visual-word-paradigm\temp","legacy","legacy","static","C:\Users\yarbus\Desktop\Team Cat\visual-word-paradigm\config.yml","0","0","20","0","20","0","0","20","20","0","20","0","20","20","20","0","20","0","20","0","9.954596582483871","50","Sat Jul 13 15:37:07 2024","20","The main experiment item","False","4196.000099182129","61811","pygame-experiment-visual-world-paradigm.osexp","C:\Users\yarbus\Desktop\Team Cat\visual-word-paradigm","black","0","0","medium-open","1000","False","mono","False","32","no","black","no","yes","1080","45","Look at the screen and listen carefully. press any key to continue","True","mono","black","32","None","None","c","legacy","-1","chicken","20","20","sports hall","C:/Users/yarbus/Desktop/Team Cat/visual-word-paradigm/trials/subject-4.csv","2000","legacy","Melodramatic Milgram","4.0.13","False","mono","black","32","None","380","Pause. Look at the fixation dot in order to continue.","30000","-480","480","-480","480","270","270","-270","-270","1000","0","2","legacy","At the sports hall, the girl played basketball.","500","1024","2","3.696000099182129","48000","-16","C:\Users\yarbus\AppData\Local\Temp\tmp8277lc_3.opensesame_pool\45_basketball.ogg","basketball","mitten","clothes","boxtruck","basketball","mitten","clothes","boxtruck","experiment","basketball","4","even","2613","BL","264165.0","C:\Users\yarbus\Desktop\Team Cat\visual-word-paradigm\temp","3107","58194","257693","424","257693","651","58194","257637","266165","NA","264122","609","258741","257665","257513","NA","259827","61812","257664","424","experiment-visual-word-paradigm","266165.0","played","1819","wolf.mp4","1920"
"33_movie.ogg","white","legacy","True","C:\Users\yarbus\Desktop\Team Cat\visual-word-paradigm\temp","legacy","legacy","static","C:\Users\yarbus\Desktop\Team Cat\visual-word-paradigm\config.yml","0","0","21","0","21","0","0","21","21","0","21","0","21","21","21","0","21","0","21","0","8.41308968691055","50","Sat Jul 13 15:37:07 2024","20","The main experiment item","False","4220.0000286102295","61811","pygame-experiment-visual-world-paradigm.osexp","C:\Users\yarbus\Desktop\Team Cat\visual-word-paradigm","black","0","0","medium-open","1000","False","mono","False","32","no","black","no","yes","1080","33","Look at the screen and listen carefully. press any key to continue","True","mono","black","32","None","None","c","legacy","-1","chicken","21","21","cinema","C:/Users/yarbus/Desktop/Team Cat/visual-word-paradigm/trials/subject-4.csv","2000","legacy","Melodramatic Milgram","4.0.13","False","mono","black","32","None","380","Pause. Look at the fixation dot in order to continue.","30000","-480","480","-480","480","270","270","-270","-270","1000","0","2","legacy","At the cinema, the girl watched a movie.","500","1024","2","3.7200000286102295","48000","-16","C:\Users\yarbus\AppData\Local\Temp\tmp8277lc_3.opensesame_pool\33_movie.ogg","movie","button","pants","battleship","movie","button","pants","battleship","experiment","movie","4","even","2212","BL","272821.0","C:\Users\yarbus\Desktop\Team Cat\visual-word-paradigm\temp","3107","58194","266391","424","266391","651","58194","266332","274929","NA","272780","609","267426","266365","266178","NA","268491","61812","266355","424","experiment-visual-word-paradigm","274821.0","watched","1562","wolf.mp4","1920"
"54_cd.ogg","white","legacy","True","C:\Users\yarbus\Desktop\Team Cat\visual-word-paradigm\temp","legacy","legacy","static","C:\Users\yarbus\Desktop\Team Cat\visual-word-paradigm\config.yml","0","0","22","0","22","0","0","22","22","0","22","0","22","22","22","0","22","0","22","0","47.69784345313738","50","Sat Jul 13 15:37:07 2024","20","The main experiment item","False","4099.999904632568","61811","pygame-experiment-visual-world-paradigm.osexp","C:\Users\yarbus\Desktop\Team Cat\visual-word-paradigm","black","0","0","medium-open","1000","False","mono","False","32","no","black","no","yes","1080","54","Look at the screen and listen carefully. press any key to continue","True","mono","black","32","None","None","c","legacy","-1","chicken","22","22","car","C:/Users/yarbus/Desktop/Team Cat/visual-word-paradigm/trials/subject-4.csv","2000","legacy","Melodramatic Milgram","4.0.13","False","mono","black","32","None","380","Pause. Look at the fixation dot in order to continue.","30000","-480","480","-480","480","270","270","-270","-270","1000","0","2","legacy","In the car, the girl listened to a CD.","500","1024","2","3.5999999046325684","48000","-16","C:\Users\yarbus\AppData\Local\Temp\tmp8277lc_3.opensesame_pool\54_cd.ogg","moon","cd","ceilingfan","brick","moon","cd","ceilingfan","brick","experiment","cd","4","even","2643","BR","281482.0","C:\Users\yarbus\Desktop\Team Cat\visual-word-paradigm\temp","3107","58194","275171","424","275171","651","58194","275122","283482","NA","281429","609","276217","275145","274931","NA","277264","61812","275145","424","experiment-visual-word-paradigm","283482.0","listened","1529","wolf.mp4","1920"
"29_ferriswheel.ogg","white","legacy","True","C:\Users\yarbus\Desktop\Team Cat\visual-word-paradigm\temp","legacy","legacy","motion","C:\Users\yarbus\Desktop\Team Cat\visual-word-paradigm\config.yml","0","0","23","0","23","0","0","23","23","0","23","0","23","23","23","0","23","0","23","0","40.17880448992979","50","Sat Jul 13 15:37:07 2024","20","The main experiment item","False","4843.999862670898","61811","pygame-experiment-visual-world-paradigm.osexp","C:\Users\yarbus\Desktop\Team Cat\visual-word-paradigm","black","0","0","medium-open","1000","False","mono","False","32","no","black","no","yes","1080","29","Look at the screen and listen carefully. press any key to continue","True","mono","black","32","None","None","c","legacy","-1","chicken","23","23","carnival","C:/Users/yarbus/Desktop/Team Cat/visual-word-paradigm/trials/subject-4.csv","2000","legacy","Melodramatic Milgram","4.0.13","False","mono","black","32","None","380","Pause. Look at the fixation dot in order to continue.","30000","-480","480","-480","480","270","270","-270","-270","1000","0","2","legacy","At the carnival, the girl rode on a Ferris wheel.","500","1024","2","4.343999862670898","48000","-16","C:\Users\yarbus\AppData\Local\Temp\tmp8277lc_3.opensesame_pool\29_ferriswheel.ogg","vegetables","button","paperclip","ferriswheel","vegetables","button","paperclip","ferriswheel","experiment","ferriswheel","4","even","3120","TR","290714.0","C:\Users\yarbus\Desktop\Team Cat\visual-word-paradigm\temp","3107","58194","283640","424","283640","651","58194","283558","293220","NA","290663","609","284675","283606","283495","NA","285761","61812","283590","424","experiment-visual-word-paradigm","292714.0","rode","1662","wolf.mp4","1920"
"05_cookie.ogg","white","legacy","True","C:\Users\yarbus\Desktop\Team Cat\visual-word-paradigm\temp","legacy","legacy","motion","C:\Users\yarbus\Desktop\Team Cat\visual-word-paradigm\config.yml","0","0","24","0","24","0","0","24","24","0","24","0","24","24","24","0","24","0","24","0","27.64484742442976","50","Sat Jul 13 15:37:07 2024","20","The main experiment item","False","3907.9999923706055","61811","pygame-experiment-visual-world-paradigm.osexp","C:\Users\yarbus\Desktop\Team Cat\visual-word-paradigm","black","0","0","medium-open","1000","False","mono","False","32","no","black","no","yes","1080","5","Look at the screen and listen carefully. press any key to continue","True","mono","black","32","None","None","c","legacy","-1","chicken","24","24","breakfast","C:/Users/yarbus/Desktop/Team Cat/visual-word-paradigm/trials/subject-4.csv","2000","legacy","Melodramatic Milgram","4.0.13","False","mono","black","32","None","380","Pause. Look at the fixation dot in order to continue.","30000","-480","480","-480","480","270","270","-270","-270","1000","0","2","legacy","At breakfast, the girl ate a cookie.","500","1024","2","3.4079999923706055","48000","-16","C:\Users\yarbus\AppData\Local\Temp\tmp8277lc_3.opensesame_pool\05_cookie.ogg","pants","nailclipper","cookie","movie","pants","nailclipper","cookie","movie","experiment","cookie","4","even","2350","TL","299723.0","C:\Users\yarbus\Desktop\Team Cat\visual-word-paradigm\temp","3107","58194","293512","424","293512","651","58194","293442","301723","NA","299672","609","294556","293477","293236","NA","295653","61812","293465","424","experiment-visual-word-paradigm","301723.0","ate","1740","wolf.mp4","1920"
"04_banana.ogg","white","legacy","True","C:\Users\yarbus\Desktop\Team Cat\visual-word-paradigm\temp","legacy","legacy","motion","C:\Users\yarbus\Desktop\Team Cat\visual-word-paradigm\config.yml","0","0","25","0","25","0","0","25","25","0","25","0","25","25","25","0","25","0","25","0","22.05638180300651","50","Sat Jul 13 15:37:07 2024","20","The main experiment item","False","4003.999948501587","61811","pygame-experiment-visual-world-paradigm.osexp","C:\Users\yarbus\Desktop\Team Cat\visual-word-paradigm","black","0","0","medium-open","1000","False","mono","False","32","no","black","no","yes","1080","4","Look at the screen and listen carefully. press any key to continue","True","mono","black","32","None","None","c","legacy","-1","chicken","25","25","breakfast","C:/Users/yarbus/Desktop/Team Cat/visual-word-paradigm/trials/subject-4.csv","2000","legacy","Melodramatic Milgram","4.0.13","False","mono","black","32","None","380","Pause. Look at the fixation dot in order to continue.","30000","-480","480","-480","480","270","270","-270","-270","1000","0","2","legacy","At breakfast, the girl ate a banana.","500","1024","2","3.503999948501587","48000","-16","C:\Users\yarbus\AppData\Local\Temp\tmp8277lc_3.opensesame_pool\04_banana.ogg","pants","videogame","banana","clothes","pants","videogame","banana","clothes","experiment","banana","4","even","2500","TL","308277.0","C:\Users\yarbus\Desktop\Team Cat\visual-word-paradigm\temp","3107","58194","301967","424","301967","651","58194","301899","310277","NA","308234","609","303007","301931","301724","NA","304138","61812","301922","424","experiment-visual-word-paradigm","310277.0","ate","1770","wolf.mp4","1920"
"41_drinks.ogg","white","legacy","True","C:\Users\yarbus\Desktop\Team Cat\visual-word-paradigm\temp","legacy","legacy","static","C:\Users\yarbus\Desktop\Team Cat\visual-word-paradigm\config.yml","0","0","26","0","26","0","0","26","26","0","26","0","26","26","26","0","26","0","26","0","47.31771642841609","50","Sat Jul 13 15:37:07 2024","20","The main experiment item","False","4075.999975204468","61811","pygame-experiment-visual-world-paradigm.osexp","C:\Users\yarbus\Desktop\Team Cat\visual-word-paradigm","black","0","0","medium-open","1000","False","mono","False","32","no","black","no","yes","1080","41","Look at the screen and listen carefully. press any key to continue","True","mono","black","32","None","None","c","legacy","-1","chicken","26","26","party","C:/Users/yarbus/Desktop/Team Cat/visual-word-paradigm/trials/subject-4.csv","2000","legacy","Melodramatic Milgram","4.0.13","False","mono","black","32","None","380","Pause. Look at the fixation dot in order to continue.","30000","-480","480","-480","480","270","270","-270","-270","1000","0","2","legacy","At the party, the girl served drinks to the guests.","500","1024","2","3.5759999752044678","48000","-16","C:\Users\yarbus\AppData\Local\Temp\tmp8277lc_3.opensesame_pool\41_drinks.ogg","drinks","nailclipper","cats","shoppingcart","drinks","nailclipper","cats","shoppingcart","experiment","drinks","4","even","2115","BL","316802.0","C:\Users\yarbus\Desktop\Team Cat\visual-word-paradigm\temp","3107","58194","310501","424","310501","651","58194","310442","319105","NA","316748","609","311550","310474","310288","NA","312606","61812","310466","424","experiment-visual-word-paradigm","318802.0","served","1333","wolf.mp4","1920"
"52_pool.ogg","white","legacy","True","C:\Users\yarbus\Desktop\Team Cat\visual-word-paradigm\temp","legacy","legacy","static","C:\Users\yarbus\Desktop\Team Cat\visual-word-paradigm\config.yml","0","0","27","0","27","0","0","27","27","0","27","0","27","27","27","0","27","0","27","0","29.366841023167634","50","Sat Jul 13 15:37:07 2024","20","The main experiment item","False","3548.0000972747803","61811","pygame-experiment-visual-world-paradigm.osexp","C:\Users\yarbus\Desktop\Team Cat\visual-word-paradigm","black","0","0","medium-open","1000","False","mono","False","32","no","black","no","yes","1080","52","Look at the screen and listen carefully. press any key to continue","True","mono","black","32","None","None","c","legacy","-1","chicken","27","27","bar","C:/Users/yarbus/Desktop/Team Cat/visual-word-paradigm/trials/subject-4.csv","2000","legacy","Melodramatic Milgram","4.0.13","False","mono","black","32","None","380","Pause. Look at the fixation dot in order to continue.","30000","-480","480","-480","480","270","270","-270","-270","1000","0","2","legacy","In the bar, the girl played pool.","500","1024","2","3.0480000972747803","48000","-16","C:\Users\yarbus\AppData\Local\Temp\tmp8277lc_3.opensesame_pool\52_pool.ogg","paperairplane","pool","calculator","dance","paperairplane","pool","calculator","dance","experiment","pool","4","even","1993","BR","325134.0","C:\Users\yarbus\Desktop\Team Cat\visual-word-paradigm\temp","3107","58194","319389","424","319389","651","58194","319305","327134","NA","325085","609","320436","319354","319118","NA","321488","61812","319334","424","experiment-visual-word-paradigm","327134.0","played","1298","wolf.mp4","1920"
"55_frisbee.ogg","white","legacy","True","C:\Users\yarbus\Desktop\Team Cat\visual-word-paradigm\temp","legacy","legacy","static","C:\Users\yarbus\Desktop\Team Cat\visual-word-paradigm\config.yml","0","0","28","0","28","0","0","28","28","0","28","0","28","28","28","0","28","0","28","0","49.68660305394201","50","Sat Jul 13 15:37:07 2024","20","The main experiment item","False","3716.0000801086426","61811","pygame-experiment-visual-world-paradigm.osexp","C:\Users\yarbus\Desktop\Team Cat\visual-word-paradigm","black","0","0","medium-open","1000","False","mono","False","32","no","black","no","yes","1080","55","Look at the screen and listen carefully. press any key to continue","True","mono","black","32","None","None","c","legacy","-1","chicken","28","28","grass","C:/Users/yarbus/Desktop/Team Cat/visual-word-paradigm/trials/subject-4.csv","2000","legacy","Melodramatic Milgram","4.0.13","False","mono","black","32","None","380","Pause. Look at the fixation dot in order to continue.","30000","-480","480","-480","480","270","270","-270","-270","1000","0","2","legacy","On the grass, the girl played frisbee.","500","1024","2","3.2160000801086426","48000","-16","C:\Users\yarbus\AppData\Local\Temp\tmp8277lc_3.opensesame_pool\55_frisbee.ogg","car","frisbee","math","rollercoaster","car","frisbee","math","rollercoaster","experiment","frisbee","4","even","2036","BR","333195.0","C:\Users\yarbus\Desktop\Team Cat\visual-word-paradigm\temp","3107","58194","327278","424","327278","651","58194","327224","335196","NA","333141","609","328307","327249","327137","NA","329367","61812","327247","424","experiment-visual-word-paradigm","335195.0","played","1742","wolf.mp4","1920"
"49_blood.ogg","white","legacy","True","C:\Users\yarbus\Desktop\Team Cat\visual-word-paradigm\temp","legacy","legacy","static","C:\Users\yarbus\Desktop\Team Cat\visual-word-paradigm\config.yml","0","0","29","0","29","0","0","29","29","0","29","0","29","29","29","0","29","0","29","0","32.16292580720856","50","Sat Jul 13 15:37:07 2024","20","The main experiment item","False","4267.999887466431","61811","pygame-experiment-visual-world-paradigm.osexp","C:\Users\yarbus\Desktop\Team Cat\visual-word-paradigm","black","0","0","medium-open","1000","False","mono","False","32","no","black","no","yes","1080","49","Look at the screen and listen carefully. press any key to continue","True","mono","black","32","None","None","c","legacy","-1","chicken","29","29","hospital","C:/Users/yarbus/Desktop/Team Cat/visual-word-paradigm/trials/subject-4.csv","2000","legacy","Melodramatic Milgram","4.0.13","False","mono","black","32","None","380","Pause. Look at the fixation dot in order to continue.","30000","-480","480","-480","480","270","270","-270","-270","1000","0","2","legacy","In the hospital, the girl donated blood.","500","1024","2","3.7679998874664307","48000","-16","C:\Users\yarbus\AppData\Local\Temp\tmp8277lc_3.opensesame_pool\49_blood.ogg","calendar","blood","archery","boxingglove","calendar","blood","archery","boxingglove","experiment","blood","4","even","2734","BR","341914.0","C:\Users\yarbus\Desktop\Team Cat\visual-word-paradigm\temp","3107","58194","335420","424","335420","651","58194","335353","343914","NA","341862","609","336480","335387","335201","NA","337531","61812","335376","424","experiment-visual-word-paradigm","343914.0","donated","1890","wolf.mp4","1920"
"24_cake.ogg","white","legacy","True","C:\Users\yarbus\Desktop\Team Cat\visual-word-paradigm\temp","legacy","legacy","motion","C:\Users\yarbus\Desktop\Team Cat\visual-word-paradigm\config.yml","0","0","30","0","30","0","0","30","30","0","30","0","30","30","30","0","30","0","30","0","13.409037388269198","50","Sat Jul 13 15:37:07 2024","20","The main experiment item","False","3548.0000972747803","61811","pygame-experiment-visual-world-paradigm.osexp","C:\Users\yarbus\Desktop\Team Cat\visual-word-paradigm","black","0","0","medium-open","1000","False","mono","False","32","no","black","no","yes","1080","24","Look at the screen and listen carefully. press any key to continue","True","mono","black","32","None","None","c","legacy","-1","chicken","30","30","kitchen","C:/Users/yarbus/Desktop/Team Cat/visual-word-paradigm/trials/subject-4.csv","2000","legacy","Melodramatic Milgram","4.0.13","False","mono","black","32","None","380","Pause. Look at the fixation dot in order to continue.","30000","-480","480","-480","480","270","270","-270","-270","1000","0","2","legacy","In the kitchen, the girl baked a cake.","500","1024","2","3.0480000972747803","48000","-16","C:\Users\yarbus\AppData\Local\Temp\tmp8277lc_3.opensesame_pool\24_cake.ogg","button","cello","seashells","cake","button","cello","seashells","cake","experiment","cake","4","even","2253","TR","349938.0","C:\Users\yarbus\Desktop\Team Cat\visual-word-paradigm\temp","3107","58194","344133","424","344133","651","58194","344076","351938","NA","349869","609","345170","344103","343926","NA","346242","61812","344102","424","experiment-visual-word-paradigm","351938.0","baked","1409","wolf.mp4","1920"
"46_badminton.ogg","white","legacy","True","C:\Users\yarbus\Desktop\Team Cat\visual-word-paradigm\temp","legacy","legacy","static","C:\Users\yarbus\Desktop\Team Cat\visual-word-paradigm\config.yml","0","0","31","0","31","0","0","31","31","0","31","0","31","31","31","0","31","0","31","0","47.42874196434053","50","Sat Jul 13 15:37:07 2024","20","The main experiment item","False","3931.999921798706","61811","pygame-experiment-visual-world-paradigm.osexp","C:\Users\yarbus\Desktop\Team Cat\visual-word-paradigm","black","0","0","medium-open","1000","False","mono","False","32","no","black","no","yes","1080","46","Look at the screen and listen carefully. press any key to continue","True","mono","black","32","None","None","c","legacy","-1","chicken","31","31","stadium","C:/Users/yarbus/Desktop/Team Cat/visual-word-paradigm/trials/subject-4.csv","2000","legacy","Melodramatic Milgram","4.0.13","False","mono","black","32","None","380","Pause. Look at the fixation dot in order to continue.","30000","-480","480","-480","480","270","270","-270","-270","1000","0","2","legacy","At the stadium, the girl played badminton.","500","1024","2","3.431999921798706","48000","-16","C:\Users\yarbus\AppData\Local\Temp\tmp8277lc_3.opensesame_pool\46_badminton.ogg","badminton","cactus","ceilingfan","dishes","badminton","cactus","ceilingfan","dishes","experiment","badminton","4","even","2416","BL","358309.0","C:\Users\yarbus\Desktop\Team Cat\visual-word-paradigm\temp","3107","58194","352132","424","352132","651","58194","352071","360448","NA","358256","609","353173","352106","351950","NA","354270","61812","352094","424","experiment-visual-word-paradigm","360309.0","played","1705","wolf.mp4","1920"
"23_novel.ogg","white","legacy","True","C:\Users\yarbus\Desktop\Team Cat\visual-word-paradigm\temp","legacy","legacy","motion","C:\Users\yarbus\Desktop\Team Cat\visual-word-paradigm\config.yml","0","0","32","0","32","0","0","32","32","0","32","0","32","32","32","0","32","0","32","0","31.30648262325242","50","Sat Jul 13 15:37:07 2024","20","The main experiment item","False","3523.9999294281006","61811","pygame-experiment-visual-world-paradigm.osexp","C:\Users\yarbus\Desktop\Team Cat\visual-word-paradigm","black","0","0","medium-open","1000","False","mono","False","32","no","black","no","yes","1080","23","Look at the screen and listen carefully. press any key to continue","True","mono","black","32","None","None","c","legacy","-1","chicken","32","32","library","C:/Users/yarbus/Desktop/Team Cat/visual-word-paradigm/trials/subject-4.csv","2000","legacy","Melodramatic Milgram","4.0.13","False","mono","black","32","None","380","Pause. Look at the fixation dot in order to continue.","30000","-480","480","-480","480","270","270","-270","-270","1000","0","2","legacy","In the library, the girl read a novel.","500","1024","2","3.0239999294281006","48000","-16","C:\Users\yarbus\AppData\Local\Temp\tmp8277lc_3.opensesame_pool\23_novel.ogg","guitar","bracelet","marshmallow","novel","guitar","bracelet","marshmallow","novel","experiment","novel","4","even","2220","TR","366398.0","C:\Users\yarbus\Desktop\Team Cat\visual-word-paradigm\temp","3107","58194","360643","424","360643","651","58194","360572","368398","NA","366360","609","361692","360609","360451","NA","362799","61812","360595","424","experiment-visual-word-paradigm","368398.0","read","1595","wolf.mp4","1920"
"17_sofa.ogg","white","legacy","True","C:\Users\yarbus\Desktop\Team Cat\visual-word-paradigm\temp","legacy","legacy","motion","C:\Users\yarbus\Desktop\Team Cat\visual-word-paradigm\config.yml","0","0","33","0","33","0","0","33","33","0","33","0","33","33","33","0","33","0","33","0","26.406844594536416","50","Sat Jul 13 15:37:07 2024","20","The main experiment item","False","3956.0000896453857","61811","pygame-experiment-visual-world-paradigm.osexp","C:\Users\yarbus\Desktop\Team Cat\visual-word-paradigm","black","0","0","medium-open","1000","False","mono","False","32","no","black","no","yes","1080","17","Look at the screen and listen carefully. press any key to continue","True","mono","black","32","None","None","c","legacy","-1","chicken","33","33","living room","C:/Users/yarbus/Desktop/Team Cat/visual-word-paradigm/trials/subject-4.csv","2000","legacy","Melodramatic Milgram","4.0.13","False","mono","black","32","None","380","Pause. Look at the fixation dot in order to continue.","30000","-480","480","-480","480","270","270","-270","-270","1000","0","2","legacy","In the living room, the girl sat on a sofa. ","500","1024","2","3.4560000896453857","48000","-16","C:\Users\yarbus\AppData\Local\Temp\tmp8277lc_3.opensesame_pool\17_sofa.ogg","kite","egg","pencilsharpener","sofa","kite","egg","pencilsharpener","sofa","experiment","sofa","4","even","2636","TR","374827.0","C:\Users\yarbus\Desktop\Team Cat\visual-word-paradigm\temp","3107","58194","368602","424","368602","651","58194","368514","376827","NA","374794","609","369650","368570","368399","NA","370733","61812","368548","424","experiment-visual-word-paradigm","376827.0","sat","1619","wolf.mp4","1920"
"62_mathproblems.ogg","white","legacy","True","C:\Users\yarbus\Desktop\Team Cat\visual-word-paradigm\temp","legacy","legacy","static","C:\Users\yarbus\Desktop\Team Cat\visual-word-paradigm\config.yml","0","0","34","0","34","0","0","34","34","0","34","0","34","34","34","0","34","0","34","0","48.37492920925056","50","Sat Jul 13 15:37:07 2024","20","The main experiment item","False","4196.000099182129","61811","pygame-experiment-visual-world-paradigm.osexp","C:\Users\yarbus\Desktop\Team Cat\visual-word-paradigm","black","0","0","medium-open","1000","False","mono","False","32","no","black","no","yes","1080","62","Look at the screen and listen carefully. press any key to continue","True","mono","black","32","None","None","c","legacy","-1","chicken","34","34","classroom","C:/Users/yarbus/Desktop/Team Cat/visual-word-paradigm/trials/subject-4.csv","2000","legacy","Melodramatic Milgram","4.0.13","False","mono","black","32","None","380","Pause. Look at the fixation dot in order to continue.","30000","-480","480","-480","480","270","270","-270","-270","1000","0","2","legacy","In the classroom, the girl solved math problems.","500","1024","2","3.696000099182129","48000","-16","C:\Users\yarbus\AppData\Local\Temp\tmp8277lc_3.opensesame_pool\62_mathproblems.ogg","kite","math","bear","cookie","kite","math","bear","cookie","experiment","math","4","even","2397","BR","383476.0","C:\Users\yarbus\Desktop\Team Cat\visual-word-paradigm\temp","3107","58194","377061","424","377061","651","58194","376996","385986","NA","383421","609","378099","377021","376838","NA","379170","61812","377019","424","experiment-visual-word-paradigm","385476.0","solved","1801","wolf.mp4","1920"
"31_landscape.ogg","white","legacy","True","C:\Users\yarbus\Desktop\Team Cat\visual-word-paradigm\temp","legacy","legacy","motion","C:\Users\yarbus\Desktop\Team Cat\visual-word-paradigm\config.yml","0","0","35","0","35","0","0","35","35","0","35","0","35","35","35","0","35","0","35","0","41.77826912451017","50","Sat Jul 13 15:37:07 2024","20","The main experiment item","False","4220.0000286102295","61811","pygame-experiment-visual-world-paradigm.osexp","C:\Users\yarbus\Desktop\Team Cat\visual-word-paradigm","black","0","0","medium-open","1000","False","mono","False","32","no","black","no","yes","1080","31","Look at the screen and listen carefully. press any key to continue","True","mono","black","32","None","None","c","legacy","-1","chicken","35","35","art class","C:/Users/yarbus/Desktop/Team Cat/visual-word-paradigm/trials/subject-4.csv","2000","legacy","Melodramatic Milgram","4.0.13","False","mono","black","32","None","380","Pause. Look at the fixation dot in order to continue.","30000","-480","480","-480","480","270","270","-270","-270","1000","0","2","legacy","During art class, the girl painted a landscape.","500","1024","2","3.7200000286102295","48000","-16","C:\Users\yarbus\AppData\Local\Temp\tmp8277lc_3.opensesame_pool\31_landscape.ogg","cats","boxtruck","belt","landscapepainting","cats","boxtruck","belt","landscapepainting","experiment","landscapepainting","4","even","2742","TR","392961.0","C:\Users\yarbus\Desktop\Team Cat\visual-word-paradigm\temp","3107","58194","386269","424","386269","651","58194","386196","394961","NA","392916","609","387319","386233","385997","NA","388524","61812","386219","424","experiment-visual-word-paradigm","394961.0","painted","2015","wolf.mp4","1920"
"20_seashells.ogg","white","legacy","True","C:\Users\yarbus\Desktop\Team Cat\visual-word-paradigm\temp","legacy","legacy","motion","C:\Users\yarbus\Desktop\Team Cat\visual-word-paradigm\config.yml","0","0","36","0","36","0","0","36","36","0","36","0","36","36","36","0","36","0","36","0","41.50987333153406","50","Sat Jul 13 15:37:07 2024","20","The main experiment item","False","3980.0000190734863","61811","pygame-experiment-visual-world-paradigm.osexp","C:\Users\yarbus\Desktop\Team Cat\visual-word-paradigm","black","0","0","medium-open","1000","False","mono","False","32","no","black","no","yes","1080","20","Look at the screen and listen carefully. press any key to continue","True","mono","black","32","None","None","c","legacy","-1","chicken","36","36","beach","C:/Users/yarbus/Desktop/Team Cat/visual-word-paradigm/trials/subject-4.csv","2000","legacy","Melodramatic Milgram","4.0.13","False","mono","black","32","None","380","Pause. Look at the fixation dot in order to continue.","30000","-480","480","-480","480","270","270","-270","-270","1000","0","2","legacy","At the beach, the girl collected seashells.","500","1024","2","3.4800000190734863","48000","-16","C:\Users\yarbus\AppData\Local\Temp\tmp8277lc_3.opensesame_pool\20_seashells.ogg","documents","basketballhoop","apple","seashells","documents","basketballhoop","apple","seashells","experiment","seashells","4","even","2070","TR","401419.0","C:\Users\yarbus\Desktop\Team Cat\visual-word-paradigm\temp","3107","58194","395134","424","395134","651","58194","395085","403422","NA","401330","609","396165","395109","394962","NA","397275","61812","395108","424","experiment-visual-word-paradigm","403419.0","built","1300","wolf.mp4","1920"
"30_cottoncandy.ogg","white","legacy","True","C:\Users\yarbus\Desktop\Team Cat\visual-word-paradigm\temp","legacy","legacy","motion","C:\Users\yarbus\Desktop\Team Cat\visual-word-paradigm\config.yml","0","0","37","0","37","0","0","37","37","0","37","0","37","37","37","0","37","0","37","0","12.071966182855201","50","Sat Jul 13 15:37:07 2024","20","The main experiment item","False","4028.0001163482666","61811","pygame-experiment-visual-world-paradigm.osexp","C:\Users\yarbus\Desktop\Team Cat\visual-word-paradigm","black","0","0","medium-open","1000","False","mono","False","32","no","black","no","yes","1080","30","Look at the screen and listen carefully. press any key to continue","True","mono","black","32","None","None","c","legacy","-1","chicken","37","37","carnival","C:/Users/yarbus/Desktop/Team Cat/visual-word-paradigm/trials/subject-4.csv","2000","legacy","Melodramatic Milgram","4.0.13","False","mono","black","32","None","380","Pause. Look at the fixation dot in order to continue.","30000","-480","480","-480","480","270","270","-270","-270","1000","0","2","legacy","At the carnival, the girl ate cotton candy.","500","1024","2","3.5280001163482666","48000","-16","C:\Users\yarbus\AppData\Local\Temp\tmp8277lc_3.opensesame_pool\30_cottoncandy.ogg","badminton","armchair","boxingglove","cottoncandy","badminton","armchair","boxingglove","cottoncandy","experiment","cottoncandy","4","even","2400","TR","409906.0","C:\Users\yarbus\Desktop\Team Cat\visual-word-paradigm\temp","3107","58194","403613","424","403613","651","58194","403556","411906","NA","409862","609","404649","403589","403435","NA","405746","61812","403579","424","experiment-visual-word-paradigm","411906.0","ate","1970","wolf.mp4","1920"
"11_chicken.ogg","white","legacy","True","C:\Users\yarbus\Desktop\Team Cat\visual-word-paradigm\temp","legacy","legacy","motion","C:\Users\yarbus\Desktop\Team Cat\visual-word-paradigm\config.yml","0","0","38","0","38","0","0","38","38","0","38","0","38","38","38","0","38","0","38","0","33.665907930724245","50","Sat Jul 13 15:37:07 2024","20","The main experiment item","False","3548.0000972747803","61811","pygame-experiment-visual-world-paradigm.osexp","C:\Users\yarbus\Desktop\Team Cat\visual-word-paradigm","black","0","0","medium-open","1000","False","mono","False","32","no","black","no","yes","1080"," ","Look at the screen and listen carefully. press any key to continue","True","mono","black","32","None","None","c","legacy","-1","chicken","38","38","farm","C:/Users/yarbus/Desktop/Team Cat/visual-word-paradigm/trials/subject-4.csv","2000","legacy","Melodramatic Milgram","4.0.13","False","mono","black","32","None","380","Pause. Look at the fixation dot in order to continue.","30000","-480","480","-480","480","270","270","-270","-270","1000","0","2","legacy","At the farm, the girl fed the chicken. ","500","1024","2","3.0480000972747803","48000","-16","C:\Users\yarbus\AppData\Local\Temp\tmp8277lc_3.opensesame_pool\11_chicken.ogg","shoppingcart","battery","chicken","basketball","shoppingcart","battery","chicken","basketball","experiment","chicken","4","even","2193","TL","417981.0","C:\Users\yarbus\Desktop\Team Cat\visual-word-paradigm\temp","3107","58194","412106","424","412106","651","58194","412043","419981","NA","417943","609","413155","412077","411919","NA","414273","61812","412066","424","experiment-visual-word-paradigm","419981.0","fed","1607","wolf.mp4","1920"
"47_baggage.ogg","white","legacy","True","C:\Users\yarbus\Desktop\Team Cat\visual-word-paradigm\temp","legacy","legacy","static","C:\Users\yarbus\Desktop\Team Cat\visual-word-paradigm\config.yml","0","0","39","0","39","0","0","39","39","0","39","0","39","39","39","0","39","0","39","0","29.73969277312731","50","Sat Jul 13 15:37:07 2024","20","The main experiment item","False","4676.000118255615","61811","pygame-experiment-visual-world-paradigm.osexp","C:\Users\yarbus\Desktop\Team Cat\visual-word-paradigm","black","0","0","medium-open","1000","False","mono","False","32","no","black","no","yes","1080","47","Look at the screen and listen carefully. press any key to continue","True","mono","black","32","None","None","c","legacy","-1","chicken","39","39","airport","C:/Users/yarbus/Desktop/Team Cat/visual-word-paradigm/trials/subject-4.csv","2000","legacy","Melodramatic Milgram","4.0.13","False","mono","black","32","None","380","Pause. Look at the fixation dot in order to continue.","30000","-480","480","-480","480","270","270","-270","-270","1000","0","2","legacy","At the airport, the girl waited at the baggage claim.","500","1024","2","4.176000118255615","48000","-16","C:\Users\yarbus\AppData\Local\Temp\tmp8277lc_3.opensesame_pool\47_baggage.ogg","baggage","rollercoaster","basketballhoop","croissant","baggage","rollercoaster","basketballhoop","croissant","experiment","baggage","4","even","2756","BL","427091.0","C:\Users\yarbus\Desktop\Team Cat\visual-word-paradigm\temp","3107","58194","420185","424","420185","651","58194","420130","429439","NA","427046","609","421226","420160","419993","NA","422301","61812","420153","424","experiment-visual-word-paradigm","429091.0","waited","1593","wolf.mp4","1920"
"36_marathon.ogg","white","legacy","True","C:\Users\yarbus\Desktop\Team Cat\visual-word-paradigm\temp","legacy","legacy","static","C:\Users\yarbus\Desktop\Team Cat\visual-word-paradigm\config.yml","0","0","40","0","40","0","0","40","40","0","40","0","40","40","40","0","40","0","40","0","28.696414616463862","50","Sat Jul 13 15:37:07 2024","20","The main experiment item","False","3835.9999656677246","61811","pygame-experiment-visual-world-paradigm.osexp","C:\Users\yarbus\Desktop\Team Cat\visual-word-paradigm","black","0","0","medium-open","1000","False","mono","False","32","no","black","no","yes","1080","36","Look at the screen and listen carefully. press any key to continue","True","mono","black","32","None","None","c","legacy","-1","chicken","40","40","stadium","C:/Users/yarbus/Desktop/Team Cat/visual-word-paradigm/trials/subject-4.csv","2000","legacy","Melodramatic Milgram","4.0.13","False","mono","black","32","None","380","Pause. Look at the fixation dot in order to continue.","30000","-480","480","-480","480","270","270","-270","-270","1000","0","2","legacy","At the stadium, the girl ran a marathon.","500","1024","2","3.3359999656677246","48000","-16","C:\Users\yarbus\AppData\Local\Temp\tmp8277lc_3.opensesame_pool\36_marathon.ogg","marathon","dishes","mouse","bust","marathon","dishes","mouse","bust","experiment","marathon","4","even","2382","BL","435740.0","C:\Users\yarbus\Desktop\Team Cat\visual-word-paradigm\temp","3107","58194","429670","424","429670","651","58194","429611","437761","NA","435668","609","430715","429637","429442","NA","431768","61812","429634","424","experiment-visual-word-paradigm","437740.0","ran","1389","wolf.mp4","1920"
"57_trails.ogg","white","legacy","True","C:\Users\yarbus\Desktop\Team Cat\visual-word-paradigm\temp","legacy","legacy","static","C:\Users\yarbus\Desktop\Team Cat\visual-word-paradigm\config.yml","0","0","41","0","41","0","0","41","41","0","41","0","41","41","41","0","41","0","41","0","49.18103132387526","50","Sat Jul 13 15:37:07 2024","20","The main experiment item","False","3859.999895095825","61811","pygame-experiment-visual-world-paradigm.osexp","C:\Users\yarbus\Desktop\Team Cat\visual-word-paradigm","black","0","0","medium-open","1000","False","mono","False","32","no","black","no","yes","1080","57","Look at the screen and listen carefully. press any key to continue","True","mono","black","32","None","None","c","legacy","-1","chicken","41","41","forest","C:/Users/yarbus/Desktop/Team Cat/visual-word-paradigm/trials/subject-4.csv","2000","legacy","Melodramatic Milgram","4.0.13","False","mono","black","32","None","380","Pause. Look at the fixation dot in order to continue.","30000","-480","480","-480","480","270","270","-270","-270","1000","0","2","legacy","In the forest, the girl hiked on trails.","500","1024","2","3.359999895095825","48000","-16","C:\Users\yarbus\AppData\Local\Temp\tmp8277lc_3.opensesame_pool\57_trails.ogg","bust","hiking","belt","bathtub","bust","hiking","belt","bathtub","experiment","trails","4","even","2394","BR","444050.0","C:\Users\yarbus\Desktop\Team Cat\visual-word-paradigm\temp","3107","58194","437985","424","437985","651","58194","437914","446113","NA","444004","609","439026","437949","437774","NA","440096","61812","437937","424","experiment-visual-word-paradigm","446050.0","hiked","1349","wolf.mp4","1920"
"09_cello.ogg","white","legacy","True","C:\Users\yarbus\Desktop\Team Cat\visual-word-paradigm\temp","legacy","legacy","motion","C:\Users\yarbus\Desktop\Team Cat\visual-word-paradigm\config.yml","0","0","42","0","42","0","0","42","42","0","42","0","42","42","42","0","42","0","42","0","43.07009187452476","50","Sat Jul 13 15:37:07 2024","20","The main experiment item","False","4052.000045776367","61811","pygame-experiment-visual-world-paradigm.osexp","C:\Users\yarbus\Desktop\Team Cat\visual-word-paradigm","black","0","0","medium-open","1000","False","mono","False","32","no","black","no","yes","1080","9","Look at the screen and listen carefully. press any key to continue","True","mono","black","32","None","None","c","legacy","-1","chicken","42","42","musical class","C:/Users/yarbus/Desktop/Team Cat/visual-word-paradigm/trials/subject-4.csv","2000","legacy","Melodramatic Milgram","4.0.13","False","mono","black","32","None","380","Pause. Look at the fixation dot in order to continue.","30000","-480","480","-480","480","270","270","-270","-270","1000","0","2","legacy","During musical class, the girl played the cello. ","500","1024","2","3.552000045776367","48000","-16","C:\Users\yarbus\AppData\Local\Temp\tmp8277lc_3.opensesame_pool\09_cello.ogg","soccer","brick","cello","pencilsharpener","soccer","brick","cello","pencilsharpener","experiment","cello","4","even","2260","TL","452686.0","C:\Users\yarbus\Desktop\Team Cat\visual-word-paradigm\temp","3107","58194","446346","424","446346","651","58194","446287","454686","NA","452641","609","447384","446313","446114","NA","448466","61812","446311","424","experiment-visual-word-paradigm","454686.0","played","1856","wolf.mp4","1920"
"34_popcorn.ogg","white","legacy","True","C:\Users\yarbus\Desktop\Team Cat\visual-word-paradigm\temp","legacy","legacy","static","C:\Users\yarbus\Desktop\Team Cat\visual-word-paradigm\config.yml","0","0","43","0","43","0","0","43","43","0","43","0","43","43","43","0","43","0","43","0","49.56743178660764","50","Sat Jul 13 15:37:07 2024","20","The main experiment item","False","4003.999948501587","61811","pygame-experiment-visual-world-paradigm.osexp","C:\Users\yarbus\Desktop\Team Cat\visual-word-paradigm","black","0","0","medium-open","1000","False","mono","False","32","no","black","no","yes","1080","34","Look at the screen and listen carefully. press any key to continue","True","mono","black","32","None","None","c","legacy","-1","chicken","43","43","cinema","C:/Users/yarbus/Desktop/Team Cat/visual-word-paradigm/trials/subject-4.csv","2000","legacy","Melodramatic Milgram","4.0.13","False","mono","black","32","None","380","Pause. Look at the fixation dot in order to continue.","30000","-480","480","-480","480","270","270","-270","-270","1000","0","2","legacy","At the cinema, the girl ate popcorn.","500","1024","2","3.503999948501587","48000","-16","C:\Users\yarbus\AppData\Local\Temp\tmp8277lc_3.opensesame_pool\34_popcorn.ogg","popcorn","dice","fishing","keyboard","popcorn","dice","fishing","keyboard","experiment","popcorn","4","even","2182","BL","461109.0","C:\Users\yarbus\Desktop\Team Cat\visual-word-paradigm\temp","3107","58194","454886","424","454886","651","58194","454812","463192","NA","461066","609","455936","454853","454698","NA","457008","61812","454838","424","experiment-visual-word-paradigm","463109.0","ate","1685","wolf.mp4","1920"
"63_meditation.ogg","white","legacy","True","C:\Users\yarbus\Desktop\Team Cat\visual-word-paradigm\temp","legacy","legacy","static","C:\Users\yarbus\Desktop\Team Cat\visual-word-paradigm\config.yml","0","0","44","0","44","0","0","44","44","0","44","0","44","44","44","0","44","0","44","0","14.454095391964167","50","Sat Jul 13 15:37:07 2024","20","The main experiment item","False","4748.000144958496","61811","pygame-experiment-visual-world-paradigm.osexp","C:\Users\yarbus\Desktop\Team Cat\visual-word-paradigm","black","0","0","medium-open","1000","False","mono","False","32","no","black","no","yes","1080","63","Look at the screen and listen carefully. press any key to continue","True","mono","black","32","None","None","c","legacy","-1","chicken","44","44","yoga class","C:/Users/yarbus/Desktop/Team Cat/visual-word-paradigm/trials/subject-4.csv","2000","legacy","Melodramatic Milgram","4.0.13","False","mono","black","32","None","380","Pause. Look at the fixation dot in order to continue.","30000","-480","480","-480","480","270","270","-270","-270","1000","0","2","legacy","During yoga class, the girl practised meditation. ","500","1024","2","4.248000144958496","48000","-16","C:\Users\yarbus\AppData\Local\Temp\tmp8277lc_3.opensesame_pool\63_meditation.ogg","barbecue","meditation","mitten","bookshelf","barbecue","meditation","mitten","bookshelf","experiment","meditation","4","even","3105","BR","470372.0","C:\Users\yarbus\Desktop\Team Cat\visual-word-paradigm\temp","3107","58194","463396","424","463396","651","58194","463336","473473","NA","470321","609","464432","463373","463204","NA","465509","61812","463359","424","experiment-visual-word-paradigm","472372.0","practised","2119","wolf.mp4","1920"
"60_tree.ogg","white","legacy","True","C:\Users\yarbus\Desktop\Team Cat\visual-word-paradigm\temp","legacy","legacy","static","C:\Users\yarbus\Desktop\Team Cat\visual-word-paradigm\config.yml","0","0","45","0","45","0","0","45","45","0","45","0","45","45","45","0","45","0","45","0","31.0973104148896","50","Sat Jul 13 15:37:07 2024","20","The main experiment item","False","4267.999887466431","61811","pygame-experiment-visual-world-paradigm.osexp","C:\Users\yarbus\Desktop\Team Cat\visual-word-paradigm","black","0","0","medium-open","1000","False","mono","False","32","no","black","no","yes","1080","60","Look at the screen and listen carefully. press any key to continue","True","mono","black","32","None","None","c","legacy","-1","chicken","45","45","forest","C:/Users/yarbus/Desktop/Team Cat/visual-word-paradigm/trials/subject-4.csv","2000","legacy","Melodramatic Milgram","4.0.13","False","mono","black","32","None","380","Pause. Look at the fixation dot in order to continue.","30000","-480","480","-480","480","270","270","-270","-270","1000","0","2","legacy","In the forest, the girl cut down a tree.","500","1024","2","3.7679998874664307","48000","-16","C:\Users\yarbus\AppData\Local\Temp\tmp8277lc_3.opensesame_pool\60_tree.ogg","bookshelf","tree","calculator","cactus","bookshelf","tree","calculator","cactus","experiment","tree","4","even","2469","BR","480222.0","C:\Users\yarbus\Desktop\Team Cat\visual-word-paradigm\temp","3107","58194","473743","424","473743","651","58194","473683","482222","NA","480182","609","474777","473719","473485","NA","475844","61812","473706","424","experiment-visual-word-paradigm","482222.0","cut","1377","wolf.mp4","1920"
"14_card.ogg","white","legacy","True","C:\Users\yarbus\Desktop\Team Cat\visual-word-paradigm\temp","legacy","legacy","motion","C:\Users\yarbus\Desktop\Team Cat\visual-word-paradigm\config.yml","0","0","46","0","46","0","0","46","46","0","46","0","46","46","46","0","46","0","46","0","48.405132765854404","50","Sat Jul 13 15:37:07 2024","20","The main experiment item","False","4075.999975204468","61811","pygame-experiment-visual-world-paradigm.osexp","C:\Users\yarbus\Desktop\Team Cat\visual-word-paradigm","black","0","0","medium-open","1000","False","mono","False","32","no","black","no","yes","1080","14","Look at the screen and listen carefully. press any key to continue","True","mono","black","32","None","None","c","legacy","-1","chicken","46","46","casino","C:/Users/yarbus/Desktop/Team Cat/visual-word-paradigm/trials/subject-4.csv","2000","legacy","Melodramatic Milgram","4.0.13","False","mono","black","32","None","380","Pause. Look at the fixation dot in order to continue.","30000","-480","480","-480","480","270","270","-270","-270","1000","0","2","legacy","At the casino, the girl picked a card. ","500","1024","2","3.5759999752044678","48000","-16","C:\Users\yarbus\AppData\Local\Temp\tmp8277lc_3.opensesame_pool\14_card.ogg","vegetables","sandcastle","card","parkfountain","vegetables","sandcastle","card","parkfountain","experiment","card","4","even","2672","TL","488742.0","C:\Users\yarbus\Desktop\Team Cat\visual-word-paradigm\temp","3107","58194","482441","424","482441","651","58194","482383","490742","NA","488690","609","483475","482417","482225","NA","484545","61812","482410","424","experiment-visual-word-paradigm","490742.0","picked","2075","wolf.mp4","1920"
"50_cactus.ogg","white","legacy","True","C:\Users\yarbus\Desktop\Team Cat\visual-word-paradigm\temp","legacy","legacy","static","C:\Users\yarbus\Desktop\Team Cat\visual-word-paradigm\config.yml","0","0","47","0","47","0","0","47","47","0","47","0","47","47","47","0","47","0","47","0","12.923203819486917","50","Sat Jul 13 15:37:07 2024","20","The main experiment item","False","5179.999828338623","61811","pygame-experiment-visual-world-paradigm.osexp","C:\Users\yarbus\Desktop\Team Cat\visual-word-paradigm","black","0","0","medium-open","1000","False","mono","False","32","no","black","no","yes","1080","50","Look at the screen and listen carefully. press any key to continue","True","mono","black","32","None","None","c","legacy","-1","chicken","47","47","botanical garden","C:/Users/yarbus/Desktop/Team Cat/visual-word-paradigm/trials/subject-4.csv","2000","legacy","Melodramatic Milgram","4.0.13","False","mono","black","32","None","380","Pause. Look at the fixation dot in order to continue.","30000","-480","480","-480","480","270","270","-270","-270","1000","0","2","legacy","In the botanical garden, the girl got stung by a cactus.","500","1024","2","4.679999828338623","48000","-16","C:\Users\yarbus\AppData\Local\Temp\tmp8277lc_3.opensesame_pool\50_cactus.ogg","card","cactus","bear","pacifier","card","cactus","bear","pacifier","experiment","cactus","4","even","3287","BR","498322.0","C:\Users\yarbus\Desktop\Team Cat\visual-word-paradigm\temp","3107","58194","490916","424","490916","651","58194","490855","500322","NA","498275","609","491964","490888","490754","NA","493032","61812","490878","424","experiment-visual-word-paradigm","500322.0","stung","2326","wolf.mp4","1920"
"27_treadmill.ogg","white","legacy","True","C:\Users\yarbus\Desktop\Team Cat\visual-word-paradigm\temp","legacy","legacy","motion","C:\Users\yarbus\Desktop\Team Cat\visual-word-paradigm\config.yml","0","0","48","0","48","0","0","48","48","0","48","0","48","48","48","0","48","0","48","0","29.65998040727606","50","Sat Jul 13 15:37:07 2024","20","The main experiment item","False","4339.9999141693115","61811","pygame-experiment-visual-world-paradigm.osexp","C:\Users\yarbus\Desktop\Team Cat\visual-word-paradigm","black","0","0","medium-open","1000","False","mono","False","32","no","black","no","yes","1080","27","Look at the screen and listen carefully. press any key to continue","True","mono","black","32","None","None","c","legacy","-1","chicken","48","48","gym","C:/Users/yarbus/Desktop/Team Cat/visual-word-paradigm/trials/subject-4.csv","2000","legacy","Melodramatic Milgram","4.0.13","False","mono","black","32","None","380","Pause. Look at the fixation dot in order to continue.","30000","-480","480","-480","480","270","270","-270","-270","1000","0","2","legacy","At the gym, the girl ran on the treadmill.","500","1024","2","3.8399999141693115","48000","-16","C:\Users\yarbus\AppData\Local\Temp\tmp8277lc_3.opensesame_pool\27_treadmill.ogg","oven","duck","belt","treadmill","oven","duck","belt","treadmill","experiment","treadmill","4","even","2689","TR","507241.0","C:\Users\yarbus\Desktop\Team Cat\visual-word-paradigm\temp","3107","58194","500567","424","500567","651","58194","500505","509879","NA","507187","609","501606","500539","500335","NA","502725","61812","500534","424","experiment-visual-word-paradigm","509241.0","ran","1849","wolf.mp4","1920"
"16_mouse.ogg","white","legacy","True","C:\Users\yarbus\Desktop\Team Cat\visual-word-paradigm\temp","legacy","legacy","motion","C:\Users\yarbus\Desktop\Team Cat\visual-word-paradigm\config.yml","0","0","49","0","49","0","0","49","49","0","49","0","49","49","49","0","49","0","49","0","10.40950532542257","50","Sat Jul 13 15:37:07 2024","20","The main experiment item","False","3740.000009536743","61811","pygame-experiment-visual-world-paradigm.osexp","C:\Users\yarbus\Desktop\Team Cat\visual-word-paradigm","black","0","0","medium-open","1000","False","mono","False","32","no","black","no","yes","1080","16","Look at the screen and listen carefully. press any key to continue","True","mono","black","32","None","None","c","legacy","-1","chicken","49","49","desk","C:/Users/yarbus/Desktop/Team Cat/visual-word-paradigm/trials/subject-4.csv","2000","legacy","Melodramatic Milgram","4.0.13","False","mono","black","32","None","380","Pause. Look at the fixation dot in order to continue.","30000","-480","480","-480","480","270","270","-270","-270","1000","0","2","legacy","At her desk, the girl clicked the mouse. ","500","1024","2","3.240000009536743","48000","-16","C:\Users\yarbus\AppData\Local\Temp\tmp8277lc_3.opensesame_pool\16_mouse.ogg","moon","button","mouse","ceilingfan","moon","button","mouse","ceilingfan","experiment","mouse","4","even","2425","TL","516200.0","C:\Users\yarbus\Desktop\Team Cat\visual-word-paradigm\temp","3107","58194","510076","424","510076","651","58194","510007","518200","NA","516121","609","511119","510040","509883","NA","512243","61812","510030","424","experiment-visual-word-paradigm","518200.0","clicked","1427","wolf.mp4","1920"
"03_sandwich.ogg","white","legacy","True","C:\Users\yarbus\Desktop\Team Cat\visual-word-paradigm\temp","legacy","legacy","motion","C:\Users\yarbus\Desktop\Team Cat\visual-word-paradigm\config.yml","0","0","50","0","50","0","0","50","50","0","50","0","50","50","50","0","50","0","50","0","34.6738605223012","50","Sat Jul 13 15:37:07 2024","20","The main experiment item","False","4099.999904632568","61811","pygame-experiment-visual-world-paradigm.osexp","C:\Users\yarbus\Desktop\Team Cat\visual-word-paradigm","black","0","0","medium-open","1000","False","mono","False","32","no","black","no","yes","1080","3","Look at the screen and listen carefully. press any key to continue","True","mono","black","32","None","None","c","legacy","-1","chicken","50","50","dinner time","C:/Users/yarbus/Desktop/Team Cat/visual-word-paradigm/trials/subject-4.csv","2000","legacy","Melodramatic Milgram","4.0.13","False","mono","black","32","None","380","Pause. Look at the fixation dot in order to continue.","30000","-480","480","-480","480","270","270","-270","-270","1000","0","2","legacy","At dinner time, the girl ate a sandwich.","500","1024","2","3.5999999046325684","48000","-16","C:\Users\yarbus\AppData\Local\Temp\tmp8277lc_3.opensesame_pool\03_sandwich.ogg","bulldozer","belt","sandwich","patioumbrella","bulldozer","belt","sandwich","patioumbrella","experiment","sandwich","4","even","2711","TL","524725.0","C:\Users\yarbus\Desktop\Team Cat\visual-word-paradigm\temp","3107","58194","518378","424","518378","651","58194","518321","526725","NA","524677","609","519424","518345","518213","NA","520516","61812","518344","424","experiment-visual-word-paradigm","526725.0","ate","2287","wolf.mp4","1920"
"26_weights.ogg","white","legacy","True","C:\Users\yarbus\Desktop\Team Cat\visual-word-paradigm\temp","legacy","legacy","motion","C:\Users\yarbus\Desktop\Team Cat\visual-word-paradigm\config.yml","0","0","51","0","51","0","0","51","51","0","51","0","51","51","51","0","51","0","51","0","37.34217946076528","50","Sat Jul 13 15:37:07 2024","20","The main experiment item","False","3907.9999923706055","61811","pygame-experiment-visual-world-paradigm.osexp","C:\Users\yarbus\Desktop\Team Cat\visual-word-paradigm","black","0","0","medium-open","1000","False","mono","False","32","no","black","no","yes","1080","26","Look at the screen and listen carefully. press any key to continue","True","mono","black","32","None","None","c","legacy","-1","chicken","51","51","gym","C:/Users/yarbus/Desktop/Team Cat/visual-word-paradigm/trials/subject-4.csv","2000","legacy","Melodramatic Milgram","4.0.13","False","mono","black","32","None","380","Pause. Look at the fixation dot in order to continue.","30000","-480","480","-480","480","270","270","-270","-270","1000","0","2","legacy","At the gym, the girl lifted weights.","500","1024","2","3.4079999923706055","48000","-16","C:\Users\yarbus\AppData\Local\Temp\tmp8277lc_3.opensesame_pool\26_weights.ogg","croissant","horse","paintcan","weights","croissant","horse","paintcan","weights","experiment","weights","4","even","2831","TR","533158.0","C:\Users\yarbus\Desktop\Team Cat\visual-word-paradigm\temp","3107","58194","526970","424","526970","651","58194","526896","535158","NA","533106","609","528016","526936","526736","NA","529127","61812","526919","424","experiment-visual-word-paradigm","535158.0","lifted","1825","wolf.mp4","1920"
"28_rollercoaster.ogg","white","legacy","True","C:\Users\yarbus\Desktop\Team Cat\visual-word-paradigm\temp","legacy","legacy","motion","C:\Users\yarbus\Desktop\Team Cat\visual-word-paradigm\config.yml","0","0","52","0","52","0","0","52","52","0","52","0","52","52","52","0","52","0","52","0","27.622867561496918","50","Sat Jul 13 15:37:07 2024","20","The main experiment item","False","4292.00005531311","61811","pygame-experiment-visual-world-paradigm.osexp","C:\Users\yarbus\Desktop\Team Cat\visual-word-paradigm","black","0","0","medium-open","1000","False","mono","False","32","no","black","no","yes","1080","28","Look at the screen and listen carefully. press any key to continue","True","mono","black","32","None","None","c","legacy","-1","chicken","52","52","carnival","C:/Users/yarbus/Desktop/Team Cat/visual-word-paradigm/trials/subject-4.csv","2000","legacy","Melodramatic Milgram","4.0.13","False","mono","black","32","None","380","Pause. Look at the fixation dot in order to continue.","30000","-480","480","-480","480","270","270","-270","-270","1000","0","2","legacy","At the carnival, the girl rode a roller coaster.","500","1024","2","3.7920000553131104","48000","-16","C:\Users\yarbus\AppData\Local\Temp\tmp8277lc_3.opensesame_pool\28_rollercoaster.ogg","picnic","bust","videogame","rollercoaster","picnic","bust","videogame","rollercoaster","experiment","rollercoaster","4","even","2229","TR","541998.0","C:\Users\yarbus\Desktop\Team Cat\visual-word-paradigm\temp","3107","58194","535382","424","535382","651","58194","535330","544010","NA","541957","609","536414","535354","535159","NA","537542","61812","535353","424","experiment-visual-word-paradigm","543998.0","rode","1651","wolf.mp4","1920"
"53_darts.ogg","white","legacy","True","C:\Users\yarbus\Desktop\Team Cat\visual-word-paradigm\temp","legacy","legacy","static","C:\Users\yarbus\Desktop\Team Cat\visual-word-paradigm\config.yml","0","0","53","0","53","0","0","53","53","0","53","0","53","53","53","0","53","0","53","0","44.99871206156905","50","Sat Jul 13 15:37:07 2024","20","The main experiment item","False","3907.9999923706055","61811","pygame-experiment-visual-world-paradigm.osexp","C:\Users\yarbus\Desktop\Team Cat\visual-word-paradigm","black","0","0","medium-open","1000","False","mono","False","32","no","black","no","yes","1080","53","Look at the screen and listen carefully. press any key to continue","True","mono","black","32","None","None","c","legacy","-1","chicken","53","53","bar","C:/Users/yarbus/Desktop/Team Cat/visual-word-paradigm/trials/subject-4.csv","2000","legacy","Melodramatic Milgram","4.0.13","False","mono","black","32","None","380","Pause. Look at the fixation dot in order to continue.","30000","-480","480","-480","480","270","270","-270","-270","1000","0","2","legacy","In the bar, the girl played darts. ","500","1024","2","3.4079999923706055","48000","-16","C:\Users\yarbus\AppData\Local\Temp\tmp8277lc_3.opensesame_pool\53_darts.ogg","dog","dart","popcorn","shoppingcart","dog","dart","popcorn","shoppingcart","experiment","dart","4","even","2809","BR","550405.0","C:\Users\yarbus\Desktop\Team Cat\visual-word-paradigm\temp","3107","58194","544230","424","544230","651","58194","544154","553050","NA","550349","609","545271","544192","544023","NA","546324","61812","544177","424","experiment-visual-word-paradigm","552405.0","played","1930","wolf.mp4","1920"
"06_croissant.ogg","white","legacy","True","C:\Users\yarbus\Desktop\Team Cat\visual-word-paradigm\temp","legacy","legacy","motion","C:\Users\yarbus\Desktop\Team Cat\visual-word-paradigm\config.yml","0","0","54","0","54","0","0","54","54","0","54","0","54","54","54","0","54","0","54","0","48.32482430387099","50","Sat Jul 13 15:37:07 2024","20","The main experiment item","False","4075.999975204468","61811","pygame-experiment-visual-world-paradigm.osexp","C:\Users\yarbus\Desktop\Team Cat\visual-word-paradigm","black","0","0","medium-open","1000","False","mono","False","32","no","black","no","yes","1080","6","Look at the screen and listen carefully. press any key to continue","True","mono","black","32","None","None","c","legacy","-1","chicken","54","54","breakfast","C:/Users/yarbus/Desktop/Team Cat/visual-word-paradigm/trials/subject-4.csv","2000","legacy","Melodramatic Milgram","4.0.13","False","mono","black","32","None","380","Pause. Look at the fixation dot in order to continue.","30000","-480","480","-480","480","270","270","-270","-270","1000","0","2","legacy","At breakfast, the girl ate a croissant. ","500","1024","2","3.5759999752044678","48000","-16","C:\Users\yarbus\AppData\Local\Temp\tmp8277lc_3.opensesame_pool\06_croissant.ogg","dance","makeup","croissant","duck","dance","makeup","croissant","duck","experiment","croissant","4","even","2576","TL","559664.0","C:\Users\yarbus\Desktop\Team Cat\visual-word-paradigm\temp","3107","58194","553264","424","553264","651","58194","553192","561724","NA","559614","609","554312","553231","553078","NA","555410","61812","553215","424","experiment-visual-word-paradigm","561664.0","ate","1876","wolf.mp4","1920"
"56_marshmallows.ogg","white","legacy","True","C:\Users\yarbus\Desktop\Team Cat\visual-word-paradigm\temp","legacy","legacy","static","C:\Users\yarbus\Desktop\Team Cat\visual-word-paradigm\config.yml","0","0","55","0","55","0","0","55","55","0","55","0","55","55","55","0","55","0","55","0","35.81070753838862","50","Sat Jul 13 15:37:07 2024","20","The main experiment item","False","4507.999897003174","61811","pygame-experiment-visual-world-paradigm.osexp","C:\Users\yarbus\Desktop\Team Cat\visual-word-paradigm","black","0","0","medium-open","1000","False","mono","False","32","no","black","no","yes","1080","56","Look at the screen and listen carefully. press any key to continue","True","mono","black","32","None","None","c","legacy","-1","chicken","55","55","campfire","C:/Users/yarbus/Desktop/Team Cat/visual-word-paradigm/trials/subject-4.csv","2000","legacy","Melodramatic Milgram","4.0.13","False","mono","black","32","None","380","Pause. Look at the fixation dot in order to continue.","30000","-480","480","-480","480","270","270","-270","-270","1000","0","2","legacy","At the campfire, the girl roasted marshmallows.","500","1024","2","4.007999897003174","48000","-16","C:\Users\yarbus\AppData\Local\Temp\tmp8277lc_3.opensesame_pool\56_marshmallows.ogg","card","marshmallow","dice","mouse","card","marshmallow","dice","mouse","experiment","marshmallow","4","even","2892","BR","568664.0","C:\Users\yarbus\Desktop\Team Cat\visual-word-paradigm\temp","3107","58194","561946","424","561946","651","58194","561880","571315","NA","568617","609","562988","561910","561736","NA","564050","61812","561903","424","experiment-visual-word-paradigm","570664.0","roasted","2167","wolf.mp4","1920"
"39_clothes.ogg","white","legacy","True","C:\Users\yarbus\Desktop\Team Cat\visual-word-paradigm\temp","legacy","legacy","static","C:\Users\yarbus\Desktop\Team Cat\visual-word-paradigm\config.yml","0","0","56","0","56","0","0","56","56","0","56","0","56","56","56","0","56","0","56","0","24.92314305700624","50","Sat Jul 13 15:37:07 2024","20","The main experiment item","False","4243.99995803833","61811","pygame-experiment-visual-world-paradigm.osexp","C:\Users\yarbus\Desktop\Team Cat\visual-word-paradigm","black","0","0","medium-open","1000","False","mono","False","32","no","black","no","yes","1080","39","Look at the screen and listen carefully. press any key to continue","True","mono","black","32","None","None","c","legacy","-1","chicken","56","56","laundromat","C:/Users/yarbus/Desktop/Team Cat/visual-word-paradigm/trials/subject-4.csv","2000","legacy","Melodramatic Milgram","4.0.13","False","mono","black","32","None","380","Pause. Look at the fixation dot in order to continue.","30000","-480","480","-480","480","270","270","-270","-270","1000","0","2","legacy","At the laundromat, the girl washed her clothes.","500","1024","2","3.74399995803833","48000","-16","C:\Users\yarbus\AppData\Local\Temp\tmp8277lc_3.opensesame_pool\39_clothes.ogg","clothes","bookshelf","horse","armchair","clothes","bookshelf","horse","armchair","experiment","clothes","4","even","2812","BL","577960.0","C:\Users\yarbus\Desktop\Team Cat\visual-word-paradigm\temp","3107","58194","571530","424","571530","651","58194","571464","579960","NA","577926","609","572577","571499","571316","NA","573629","61812","571491","424","experiment-visual-word-paradigm","579960.0","washed","2027","wolf.mp4","1920"
"19_sandcastle.ogg","white","legacy","True","C:\Users\yarbus\Desktop\Team Cat\visual-word-paradigm\temp","legacy","legacy","motion","C:\Users\yarbus\Desktop\Team Cat\visual-word-paradigm\config.yml","0","0","57","0","57","0","0","57","57","0","57","0","57","57","57","0","57","0","57","0","22.020078473974618","50","Sat Jul 13 15:37:07 2024","20","The main experiment item","False","3476.0000705718994","61811","pygame-experiment-visual-world-paradigm.osexp","C:\Users\yarbus\Desktop\Team Cat\visual-word-paradigm","black","0","0","medium-open","1000","False","mono","False","32","no","black","no","yes","1080","19","Look at the screen and listen carefully. press any key to continue","True","mono","black","32","None","None","c","legacy","-1","chicken","57","57","beach","C:/Users/yarbus/Desktop/Team Cat/visual-word-paradigm/trials/subject-4.csv","2000","legacy","Melodramatic Milgram","4.0.13","False","mono","black","32","None","380","Pause. Look at the fixation dot in order to continue.","30000","-480","480","-480","480","270","270","-270","-270","1000","0","2","legacy","At the beach, the girl built a sandcastle.","500","1024","2","2.9760000705718994","48000","-16","C:\Users\yarbus\AppData\Local\Temp\tmp8277lc_3.opensesame_pool\19_sandcastle.ogg","meditation","dart","math","sandcastle","meditation","dart","math","sandcastle","experiment","sandcastle","4","even","1787","TR","585967.0","C:\Users\yarbus\Desktop\Team Cat\visual-word-paradigm\temp","3107","58194","580142","424","580142","651","58194","580067","587967","NA","585919","609","581213","580102","579961","NA","582315","61812","580090","424","experiment-visual-word-paradigm","587967.0","built","1169","wolf.mp4","1920"
