"audio","background","canvas_backend","central_fixation","cfg_temp_dir","clock_backend","color_backend","condition","config_path","count_calibration_pygaze_init","count_check_group_selection","count_define_logging","count_experiment","count_fixation","count_instruction_screen","count_latin_square_group_select","count_logsleep","count_new_logger","count_outro_screen","count_pause","count_preprocess_videos","count_preview","count_pygaze_start_recording","count_pygaze_stop_recording","count_readme","count_sentence","count_trial_loop","count_trial_sequence","count_utils","d","d_to_continue","datetime","delay_logsleep","description","disable_garbage_collection","duration","end_time","experiment_file","experiment_path","fixdot_color","fixdot_posx","fixdot_posy","fixdot_style","fixtime","font_bold","font_family","font_italic","font_size","font_underline","foreground","form_clicks","fullscreen","height","index","inst","inst_cnt","inst_font","inst_font_col","inst_font_size","inst_posx","inst_posy","key","keyboard_backend","latin_group","latin_group_name","live_row","live_row_trial_loop","location_cue","logfile","minpause","mouse_backend","opensesame_codename","opensesame_version","pause_cntr","pause_font","pause_font_col","pause_font_size","pause_posx","pause_posy","pause_text","pausetimeout","posx_sstimBL","posx_sstimBR","posx_sstimTL","posx_sstimTR","posy_sstimBL","posy_sstimBR","posy_sstimTL","posy_sstimTR","prevtime","repeat_cycle","round_decimals","sampler_backend","sentence","sentenceoffset","sound_buf_size","sound_channels","sound_duration_ms","sound_freq","sound_sample_size","src","sstimBL","sstimBR","sstimTL","sstimTR","sstim_bl","sstim_br","sstim_tl","sstim_tr","start","stimulus_name","subject_nr","subject_parity","target_cue_timing","target_pos","tcur","temp_dir","time_calibration_pygaze_init","time_check_group_selection","time_define_logging","time_experiment","time_fixation","time_instruction_screen","time_latin_square_group_select","time_logsleep","time_new_logger","time_outro_screen","time_pause","time_preprocess_videos","time_preview","time_pygaze_start_recording","time_pygaze_stop_recording","time_readme","time_sentence","time_trial_loop","time_trial_sequence","time_utils","title","tmin","verb_cue","verb_cue_timing","video_file","width"
"02_horse.ogg","white","legacy","True","C:\Users\yarbus\Desktop\Team Cat\visual-word-paradigm\temp","legacy","legacy","motion","C:\Users\yarbus\Desktop\Team Cat\visual-word-paradigm\config.yml","0","0","0","0","0","0","0","0","0","0","0","0","0","0","0","0","0","0","0","0","46.115147595556934","50","Wed Jul 10 15:33:32 2024","20","The main experiment item","False","3931.999921798706","133057","pygame-experiment-visual-world-paradigm.osexp","C:\Users\yarbus\Desktop\Team Cat\visual-word-paradigm","black","0","0","medium-open","1000","False","mono","False","32","no","black","no","yes","1080","2","Look at the screen and listen carefully. press any key to continue","True","mono","black","32","None","None","c","legacy","-1","chicken","0","0","countryside","C:/Users/yarbus/Desktop/Team Cat/visual-word-paradigm/trials/subject-6.csv","2000","legacy","Melodramatic Milgram","4.0.13","False","mono","black","32","None","380","Pause. Look at the fixation dot in order to continue.","30000","-480","480","-480","480","270","270","-270","-270","1000","0","2","legacy","In the countryside, the girl rode a horse.","500","1024","2","3.431999921798706","48000","-16","C:\Users\yarbus\AppData\Local\Temp\tmprtf957ee.opensesame_pool\02_horse.ogg","paperclip","oven","horse","novel","paperclip","oven","horse","novel","experiment","horse","6","even","2600","TL","143168.0","C:\Users\yarbus\Desktop\Team Cat\visual-word-paradigm\temp","2210","119838","136917","444","136917","670","119837","NA","149787","NA","143124","626","137961","133074","NA","NA","139093","133059","133064","448","experiment-visual-word-paradigm","145168.0","rode","1655","wolf.mp4","1920"
"64_cats.ogg","white","legacy","True","C:\Users\yarbus\Desktop\Team Cat\visual-word-paradigm\temp","legacy","legacy","static","C:\Users\yarbus\Desktop\Team Cat\visual-word-paradigm\config.yml","0","0","1","0","1","0","0","1","1","0","1","0","1","1","1","0","1","0","1","0","23.42772216328337","50","Wed Jul 10 15:33:32 2024","20","The main experiment item","False","4676.000118255615","133057","pygame-experiment-visual-world-paradigm.osexp","C:\Users\yarbus\Desktop\Team Cat\visual-word-paradigm","black","0","0","medium-open","1000","False","mono","False","32","no","black","no","yes","1080","64","Look at the screen and listen carefully. press any key to continue","True","mono","black","32","None","None","c","legacy","-1","chicken","1","1","pet store","C:/Users/yarbus/Desktop/Team Cat/visual-word-paradigm/trials/subject-6.csv","2000","legacy","Melodramatic Milgram","4.0.13","False","mono","black","32","None","380","Pause. Look at the fixation dot in order to continue.","30000","-480","480","-480","480","270","270","-270","-270","1000","0","2","legacy","At the pet store, the girl cuddled with adorable cats.","500","1024","2","4.176000118255615","48000","-16","C:\Users\yarbus\AppData\Local\Temp\tmprtf957ee.opensesame_pool\64_cats.ogg","battery","cats","paperairplane","ceilingfan","battery","cats","paperairplane","ceilingfan","experiment","cats","6","even","3384","BR","158250.0","C:\Users\yarbus\Desktop\Team Cat\visual-word-paradigm\temp","2210","119838","151346","444","151346","670","119837","150274","160276","NA","158208","626","152392","150297","149806","NA","153474","133059","150297","448","experiment-visual-word-paradigm","160250.0","cuddled","1510","wolf.mp4","1920"
"19_sandcastle.ogg","white","legacy","True","C:\Users\yarbus\Desktop\Team Cat\visual-word-paradigm\temp","legacy","legacy","motion","C:\Users\yarbus\Desktop\Team Cat\visual-word-paradigm\config.yml","0","0","2","0","2","0","0","2","2","0","2","0","2","2","2","0","2","0","2","0","31.1790650687284","50","Wed Jul 10 15:33:32 2024","20","The main experiment item","False","3476.0000705718994","133057","pygame-experiment-visual-world-paradigm.osexp","C:\Users\yarbus\Desktop\Team Cat\visual-word-paradigm","black","0","0","medium-open","1000","False","mono","False","32","no","black","no","yes","1080","19","Look at the screen and listen carefully. press any key to continue","True","mono","black","32","None","None","c","legacy","-1","chicken","2","2","beach","C:/Users/yarbus/Desktop/Team Cat/visual-word-paradigm/trials/subject-6.csv","2000","legacy","Melodramatic Milgram","4.0.13","False","mono","black","32","None","380","Pause. Look at the fixation dot in order to continue.","30000","-480","480","-480","480","270","270","-270","-270","1000","0","2","legacy","At the beach, the girl built a sandcastle.","500","1024","2","2.9760000705718994","48000","-16","C:\Users\yarbus\AppData\Local\Temp\tmprtf957ee.opensesame_pool\19_sandcastle.ogg","meditation","dart","math","sandcastle","meditation","dart","math","sandcastle","experiment","sandcastle","6","even","1787","TR","166346.0","C:\Users\yarbus\Desktop\Team Cat\visual-word-paradigm\temp","2210","119838","160498","444","160499","670","119837","160431","170467","NA","166300","626","161542","160468","160279","NA","162713","133059","160455","448","experiment-visual-word-paradigm","168346.0","built","1169","wolf.mp4","1920"
"60_tree.ogg","white","legacy","True","C:\Users\yarbus\Desktop\Team Cat\visual-word-paradigm\temp","legacy","legacy","static","C:\Users\yarbus\Desktop\Team Cat\visual-word-paradigm\config.yml","0","0","3","0","3","0","0","3","3","0","3","0","3","3","3","0","3","0","3","0","49.37962213707188","50","Wed Jul 10 15:33:32 2024","20","The main experiment item","False","4267.999887466431","133057","pygame-experiment-visual-world-paradigm.osexp","C:\Users\yarbus\Desktop\Team Cat\visual-word-paradigm","black","0","0","medium-open","1000","False","mono","False","32","no","black","no","yes","1080","60","Look at the screen and listen carefully. press any key to continue","True","mono","black","32","None","None","c","legacy","-1","chicken","3","3","forest","C:/Users/yarbus/Desktop/Team Cat/visual-word-paradigm/trials/subject-6.csv","2000","legacy","Melodramatic Milgram","4.0.13","False","mono","black","32","None","380","Pause. Look at the fixation dot in order to continue.","30000","-480","480","-480","480","270","270","-270","-270","1000","0","2","legacy","In the forest, the girl cut down a tree.","500","1024","2","3.7679998874664307","48000","-16","C:\Users\yarbus\AppData\Local\Temp\tmprtf957ee.opensesame_pool\60_tree.ogg","bookshelf","tree","calculator","cactus","bookshelf","tree","calculator","cactus","experiment","tree","6","even","2469","BR","177441.0","C:\Users\yarbus\Desktop\Team Cat\visual-word-paradigm\temp","2210","119838","170938","444","170938","670","119837","170864","179457","NA","177393","626","171983","170888","170479","NA","173060","133059","170887","448","experiment-visual-word-paradigm","179441.0","cut","1377","wolf.mp4","1920"
"18_armchair.ogg","white","legacy","True","C:\Users\yarbus\Desktop\Team Cat\visual-word-paradigm\temp","legacy","legacy","motion","C:\Users\yarbus\Desktop\Team Cat\visual-word-paradigm\config.yml","0","0","4","0","4","0","0","4","4","0","4","0","4","4","4","0","4","0","4","0","43.41536969691727","50","Wed Jul 10 15:33:32 2024","20","The main experiment item","False","3788.0001068115234","133057","pygame-experiment-visual-world-paradigm.osexp","C:\Users\yarbus\Desktop\Team Cat\visual-word-paradigm","black","0","0","medium-open","1000","False","mono","False","32","no","black","no","yes","1080","18","Look at the screen and listen carefully. press any key to continue","True","mono","black","32","None","None","c","legacy","-1","chicken","4","4","living room","C:/Users/yarbus/Desktop/Team Cat/visual-word-paradigm/trials/subject-6.csv","2000","legacy","Melodramatic Milgram","4.0.13","False","mono","black","32","None","380","Pause. Look at the fixation dot in order to continue.","30000","-480","480","-480","480","270","270","-270","-270","1000","0","2","legacy","In the living room, the girl sat in an armchair.","500","1024","2","3.2880001068115234","48000","-16","C:\Users\yarbus\AppData\Local\Temp\tmprtf957ee.opensesame_pool\18_armchair.ogg","wolf","battleship","frisbee","armchair","wolf","battleship","frisbee","armchair","experiment","armchair","6","even","2048","TR","185735.0","C:\Users\yarbus\Desktop\Team Cat\visual-word-paradigm\temp","2210","119838","179725","444","179725","670","119837","179651","187903","NA","185687","626","180770","179692","179460","NA","181848","133059","179674","448","experiment-visual-word-paradigm","187735.0","sat","1290","wolf.mp4","1920"
"34_popcorn.ogg","white","legacy","True","C:\Users\yarbus\Desktop\Team Cat\visual-word-paradigm\temp","legacy","legacy","static","C:\Users\yarbus\Desktop\Team Cat\visual-word-paradigm\config.yml","0","0","5","0","5","0","0","5","5","0","5","0","5","5","5","0","5","0","5","0","49.31273645783604","50","Wed Jul 10 15:33:32 2024","20","The main experiment item","False","4003.999948501587","133057","pygame-experiment-visual-world-paradigm.osexp","C:\Users\yarbus\Desktop\Team Cat\visual-word-paradigm","black","0","0","medium-open","1000","False","mono","False","32","no","black","no","yes","1080","34","Look at the screen and listen carefully. press any key to continue","True","mono","black","32","None","None","c","legacy","-1","chicken","5","5","cinema","C:/Users/yarbus/Desktop/Team Cat/visual-word-paradigm/trials/subject-6.csv","2000","legacy","Melodramatic Milgram","4.0.13","False","mono","black","32","None","380","Pause. Look at the fixation dot in order to continue.","30000","-480","480","-480","480","270","270","-270","-270","1000","0","2","legacy","At the cinema, the girl ate popcorn.","500","1024","2","3.503999948501587","48000","-16","C:\Users\yarbus\AppData\Local\Temp\tmprtf957ee.opensesame_pool\34_popcorn.ogg","popcorn","dice","fishing","keyboard","popcorn","dice","fishing","keyboard","experiment","popcorn","6","even","2182","BL","194423.0","C:\Users\yarbus\Desktop\Team Cat\visual-word-paradigm\temp","2210","119838","188177","444","188177","670","119837","188121","196499","NA","194376","626","189222","188147","187916","NA","190307","133059","188145","448","experiment-visual-word-paradigm","196423.0","ate","1685","wolf.mp4","1920"
"44_bathtub.ogg","white","legacy","True","C:\Users\yarbus\Desktop\Team Cat\visual-word-paradigm\temp","legacy","legacy","static","C:\Users\yarbus\Desktop\Team Cat\visual-word-paradigm\config.yml","0","0","6","0","6","0","0","6","6","0","6","0","6","6","6","0","6","0","6","0","47.99716469126061","50","Wed Jul 10 15:33:32 2024","20","The main experiment item","False","4099.999904632568","133057","pygame-experiment-visual-world-paradigm.osexp","C:\Users\yarbus\Desktop\Team Cat\visual-word-paradigm","black","0","0","medium-open","1000","False","mono","False","32","no","black","no","yes","1080","44","Look at the screen and listen carefully. press any key to continue","True","mono","black","32","None","None","c","legacy","-1","chicken","6","6","spa","C:/Users/yarbus/Desktop/Team Cat/visual-word-paradigm/trials/subject-6.csv","2000","legacy","Melodramatic Milgram","4.0.13","False","mono","black","32","None","380","Pause. Look at the fixation dot in order to continue.","30000","-480","480","-480","480","270","270","-270","-270","1000","0","2","legacy","In the spa, the girl relaxed in the bathtub.","500","1024","2","3.5999999046325684","48000","-16","C:\Users\yarbus\AppData\Local\Temp\tmprtf957ee.opensesame_pool\44_bathtub.ogg","bathtub","wedding","dog","moon","bathtub","wedding","dog","moon","experiment","bathtub","6","even","2713","BL","203098.0","C:\Users\yarbus\Desktop\Team Cat\visual-word-paradigm\temp","2210","119838","196779","444","196779","670","119837","196711","205106","NA","203057","626","197823","196751","196503","NA","198891","133059","196734","448","experiment-visual-word-paradigm","205098.0","relaxed","1683","wolf.mp4","1920"
"62_mathproblems.ogg","white","legacy","True","C:\Users\yarbus\Desktop\Team Cat\visual-word-paradigm\temp","legacy","legacy","static","C:\Users\yarbus\Desktop\Team Cat\visual-word-paradigm\config.yml","0","0","7","0","7","0","0","7","7","0","7","0","7","7","7","0","7","0","7","0","48.26046729985108","50","Wed Jul 10 15:33:32 2024","20","The main experiment item","False","4196.000099182129","133057","pygame-experiment-visual-world-paradigm.osexp","C:\Users\yarbus\Desktop\Team Cat\visual-word-paradigm","black","0","0","medium-open","1000","False","mono","False","32","no","black","no","yes","1080","62","Look at the screen and listen carefully. press any key to continue","True","mono","black","32","None","None","c","legacy","-1","chicken","7","7","classroom","C:/Users/yarbus/Desktop/Team Cat/visual-word-paradigm/trials/subject-6.csv","2000","legacy","Melodramatic Milgram","4.0.13","False","mono","black","32","None","380","Pause. Look at the fixation dot in order to continue.","30000","-480","480","-480","480","270","270","-270","-270","1000","0","2","legacy","In the classroom, the girl solved math problems.","500","1024","2","3.696000099182129","48000","-16","C:\Users\yarbus\AppData\Local\Temp\tmprtf957ee.opensesame_pool\62_mathproblems.ogg","kite","math","bear","cookie","kite","math","bear","cookie","experiment","math","6","even","2397","BR","211763.0","C:\Users\yarbus\Desktop\Team Cat\visual-word-paradigm\temp","2210","119838","205325","444","205325","670","119837","205268","214052","NA","211708","626","206369","205298","205119","NA","207449","133059","205297","448","experiment-visual-word-paradigm","213763.0","solved","1801","wolf.mp4","1920"
"57_trails.ogg","white","legacy","True","C:\Users\yarbus\Desktop\Team Cat\visual-word-paradigm\temp","legacy","legacy","static","C:\Users\yarbus\Desktop\Team Cat\visual-word-paradigm\config.yml","0","0","8","0","8","0","0","8","8","0","8","0","8","8","8","0","8","0","8","0","33.535199592070526","50","Wed Jul 10 15:33:32 2024","20","The main experiment item","False","3859.999895095825","133057","pygame-experiment-visual-world-paradigm.osexp","C:\Users\yarbus\Desktop\Team Cat\visual-word-paradigm","black","0","0","medium-open","1000","False","mono","False","32","no","black","no","yes","1080","57","Look at the screen and listen carefully. press any key to continue","True","mono","black","32","None","None","c","legacy","-1","chicken","8","8","forest","C:/Users/yarbus/Desktop/Team Cat/visual-word-paradigm/trials/subject-6.csv","2000","legacy","Melodramatic Milgram","4.0.13","False","mono","black","32","None","380","Pause. Look at the fixation dot in order to continue.","30000","-480","480","-480","480","270","270","-270","-270","1000","0","2","legacy","In the forest, the girl hiked on trails.","500","1024","2","3.359999895095825","48000","-16","C:\Users\yarbus\AppData\Local\Temp\tmprtf957ee.opensesame_pool\57_trails.ogg","bust","hiking","belt","bathtub","bust","hiking","belt","bathtub","experiment","trails","6","even","2394","BR","220409.0","C:\Users\yarbus\Desktop\Team Cat\visual-word-paradigm\temp","2210","119838","214325","444","214326","670","119837","214256","222409","NA","220369","626","215367","214292","214063","NA","216449","133059","214279","448","experiment-visual-word-paradigm","222409.0","hiked","1349","wolf.mp4","1920"
"24_cake.ogg","white","legacy","True","C:\Users\yarbus\Desktop\Team Cat\visual-word-paradigm\temp","legacy","legacy","motion","C:\Users\yarbus\Desktop\Team Cat\visual-word-paradigm\config.yml","0","0","9","0","9","0","0","9","9","0","9","0","9","9","9","0","9","0","9","0","48.417117297088275","50","Wed Jul 10 15:33:32 2024","20","The main experiment item","False","3548.0000972747803","133057","pygame-experiment-visual-world-paradigm.osexp","C:\Users\yarbus\Desktop\Team Cat\visual-word-paradigm","black","0","0","medium-open","1000","False","mono","False","32","no","black","no","yes","1080","24","Look at the screen and listen carefully. press any key to continue","True","mono","black","32","None","None","c","legacy","-1","chicken","9","9","kitchen","C:/Users/yarbus/Desktop/Team Cat/visual-word-paradigm/trials/subject-6.csv","2000","legacy","Melodramatic Milgram","4.0.13","False","mono","black","32","None","380","Pause. Look at the fixation dot in order to continue.","30000","-480","480","-480","480","270","270","-270","-270","1000","0","2","legacy","In the kitchen, the girl baked a cake.","500","1024","2","3.0480000972747803","48000","-16","C:\Users\yarbus\AppData\Local\Temp\tmprtf957ee.opensesame_pool\24_cake.ogg","button","cello","seashells","cake","button","cello","seashells","cake","experiment","cake","6","even","2253","TR","228544.0","C:\Users\yarbus\Desktop\Team Cat\visual-word-paradigm\temp","2210","119838","222680","444","222680","670","119837","222617","230571","NA","228500","626","223719","222642","222412","NA","224804","133059","222640","448","experiment-visual-word-paradigm","230544.0","baked","1409","wolf.mp4","1920"
"56_marshmallows.ogg","white","legacy","True","C:\Users\yarbus\Desktop\Team Cat\visual-word-paradigm\temp","legacy","legacy","static","C:\Users\yarbus\Desktop\Team Cat\visual-word-paradigm\config.yml","0","0","10","0","10","0","0","10","10","0","10","0","10","10","10","0","10","0","10","0","42.16747853974674","50","Wed Jul 10 15:33:32 2024","20","The main experiment item","False","4507.999897003174","133057","pygame-experiment-visual-world-paradigm.osexp","C:\Users\yarbus\Desktop\Team Cat\visual-word-paradigm","black","0","0","medium-open","1000","False","mono","False","32","no","black","no","yes","1080","56","Look at the screen and listen carefully. press any key to continue","True","mono","black","32","None","None","c","legacy","-1","chicken","10","10","campfire","C:/Users/yarbus/Desktop/Team Cat/visual-word-paradigm/trials/subject-6.csv","2000","legacy","Melodramatic Milgram","4.0.13","False","mono","black","32","None","380","Pause. Look at the fixation dot in order to continue.","30000","-480","480","-480","480","270","270","-270","-270","1000","0","2","legacy","At the campfire, the girl roasted marshmallows.","500","1024","2","4.007999897003174","48000","-16","C:\Users\yarbus\AppData\Local\Temp\tmprtf957ee.opensesame_pool\56_marshmallows.ogg","card","marshmallow","dice","mouse","card","marshmallow","dice","mouse","experiment","marshmallow","6","even","2892","BR","237543.0","C:\Users\yarbus\Desktop\Team Cat\visual-word-paradigm\temp","2210","119838","230828","444","230828","670","119837","230757","239654","NA","237496","626","231872","230798","230585","NA","232931","133059","230785","448","experiment-visual-word-paradigm","239543.0","roasted","2167","wolf.mp4","1920"
"47_baggage.ogg","white","legacy","True","C:\Users\yarbus\Desktop\Team Cat\visual-word-paradigm\temp","legacy","legacy","static","C:\Users\yarbus\Desktop\Team Cat\visual-word-paradigm\config.yml","0","0","11","0","11","0","0","11","11","0","11","0","11","11","11","0","11","0","11","0","40.97972670479879","50","Wed Jul 10 15:33:32 2024","20","The main experiment item","False","4676.000118255615","133057","pygame-experiment-visual-world-paradigm.osexp","C:\Users\yarbus\Desktop\Team Cat\visual-word-paradigm","black","0","0","medium-open","1000","False","mono","False","32","no","black","no","yes","1080","47","Look at the screen and listen carefully. press any key to continue","True","mono","black","32","None","None","c","legacy","-1","chicken","11","11","airport","C:/Users/yarbus/Desktop/Team Cat/visual-word-paradigm/trials/subject-6.csv","2000","legacy","Melodramatic Milgram","4.0.13","False","mono","black","32","None","380","Pause. Look at the fixation dot in order to continue.","30000","-480","480","-480","480","270","270","-270","-270","1000","0","2","legacy","At the airport, the girl waited at the baggage claim.","500","1024","2","4.176000118255615","48000","-16","C:\Users\yarbus\AppData\Local\Temp\tmprtf957ee.opensesame_pool\47_baggage.ogg","baggage","rollercoaster","basketballhoop","croissant","baggage","rollercoaster","basketballhoop","croissant","experiment","baggage","6","even","2756","BL","246804.0","C:\Users\yarbus\Desktop\Team Cat\visual-word-paradigm\temp","2210","119838","239886","444","239886","670","119837","239824","249060","NA","246758","626","240923","239857","239657","NA","242002","133059","239847","448","experiment-visual-word-paradigm","248804.0","waited","1593","wolf.mp4","1920"
"29_ferriswheel.ogg","white","legacy","True","C:\Users\yarbus\Desktop\Team Cat\visual-word-paradigm\temp","legacy","legacy","motion","C:\Users\yarbus\Desktop\Team Cat\visual-word-paradigm\config.yml","0","0","12","0","12","0","0","12","12","0","12","0","12","12","12","0","12","0","12","0","24.327582242384846","50","Wed Jul 10 15:33:32 2024","20","The main experiment item","False","4843.999862670898","133057","pygame-experiment-visual-world-paradigm.osexp","C:\Users\yarbus\Desktop\Team Cat\visual-word-paradigm","black","0","0","medium-open","1000","False","mono","False","32","no","black","no","yes","1080","29","Look at the screen and listen carefully. press any key to continue","True","mono","black","32","None","None","c","legacy","-1","chicken","12","12","carnival","C:/Users/yarbus/Desktop/Team Cat/visual-word-paradigm/trials/subject-6.csv","2000","legacy","Melodramatic Milgram","4.0.13","False","mono","black","32","None","380","Pause. Look at the fixation dot in order to continue.","30000","-480","480","-480","480","270","270","-270","-270","1000","0","2","legacy","At the carnival, the girl rode on a Ferris wheel.","500","1024","2","4.343999862670898","48000","-16","C:\Users\yarbus\AppData\Local\Temp\tmprtf957ee.opensesame_pool\29_ferriswheel.ogg","vegetables","button","paperclip","ferriswheel","vegetables","button","paperclip","ferriswheel","experiment","ferriswheel","6","even","3120","TR","256446.0","C:\Users\yarbus\Desktop\Team Cat\visual-word-paradigm\temp","2210","119838","249362","444","249362","670","119837","249295","258446","NA","256397","626","250397","249328","249072","NA","251471","133059","249317","448","experiment-visual-word-paradigm","258446.0","rode","1662","wolf.mp4","1920"
"33_movie.ogg","white","legacy","True","C:\Users\yarbus\Desktop\Team Cat\visual-word-paradigm\temp","legacy","legacy","static","C:\Users\yarbus\Desktop\Team Cat\visual-word-paradigm\config.yml","0","0","13","0","13","0","0","13","13","0","13","0","13","13","13","0","13","0","13","0","28.66481434790752","50","Wed Jul 10 15:33:32 2024","20","The main experiment item","False","4220.0000286102295","133057","pygame-experiment-visual-world-paradigm.osexp","C:\Users\yarbus\Desktop\Team Cat\visual-word-paradigm","black","0","0","medium-open","1000","False","mono","False","32","no","black","no","yes","1080","33","Look at the screen and listen carefully. press any key to continue","True","mono","black","32","None","None","c","legacy","-1","chicken","13","13","cinema","C:/Users/yarbus/Desktop/Team Cat/visual-word-paradigm/trials/subject-6.csv","2000","legacy","Melodramatic Milgram","4.0.13","False","mono","black","32","None","380","Pause. Look at the fixation dot in order to continue.","30000","-480","480","-480","480","270","270","-270","-270","1000","0","2","legacy","At the cinema, the girl watched a movie.","500","1024","2","3.7200000286102295","48000","-16","C:\Users\yarbus\AppData\Local\Temp\tmprtf957ee.opensesame_pool\33_movie.ogg","movie","button","pants","battleship","movie","button","pants","battleship","experiment","movie","6","even","2212","BL","265180.0","C:\Users\yarbus\Desktop\Team Cat\visual-word-paradigm\temp","2210","119838","258712","444","258712","670","119837","258645","267180","NA","265132","626","259755","258679","258458","NA","260847","133059","258672","448","experiment-visual-word-paradigm","267180.0","watched","1562","wolf.mp4","1920"
"39_clothes.ogg","white","legacy","True","C:\Users\yarbus\Desktop\Team Cat\visual-word-paradigm\temp","legacy","legacy","static","C:\Users\yarbus\Desktop\Team Cat\visual-word-paradigm\config.yml","0","0","14","0","14","0","0","14","14","0","14","0","14","14","14","0","14","0","14","0","39.72211600406003","50","Wed Jul 10 15:33:32 2024","20","The main experiment item","False","4243.99995803833","133057","pygame-experiment-visual-world-paradigm.osexp","C:\Users\yarbus\Desktop\Team Cat\visual-word-paradigm","black","0","0","medium-open","1000","False","mono","False","32","no","black","no","yes","1080","39","Look at the screen and listen carefully. press any key to continue","True","mono","black","32","None","None","c","legacy","-1","chicken","14","14","laundromat","C:/Users/yarbus/Desktop/Team Cat/visual-word-paradigm/trials/subject-6.csv","2000","legacy","Melodramatic Milgram","4.0.13","False","mono","black","32","None","380","Pause. Look at the fixation dot in order to continue.","30000","-480","480","-480","480","270","270","-270","-270","1000","0","2","legacy","At the laundromat, the girl washed her clothes.","500","1024","2","3.74399995803833","48000","-16","C:\Users\yarbus\AppData\Local\Temp\tmprtf957ee.opensesame_pool\39_clothes.ogg","clothes","bookshelf","horse","armchair","clothes","bookshelf","horse","armchair","experiment","clothes","6","even","2812","BL","273874.0","C:\Users\yarbus\Desktop\Team Cat\visual-word-paradigm\temp","2210","119838","267399","444","267399","670","119837","267334","276065","NA","273823","626","268447","267364","267192","NA","269528","133059","267357","448","experiment-visual-word-paradigm","275874.0","washed","2027","wolf.mp4","1920"
"30_cottoncandy.ogg","white","legacy","True","C:\Users\yarbus\Desktop\Team Cat\visual-word-paradigm\temp","legacy","legacy","motion","C:\Users\yarbus\Desktop\Team Cat\visual-word-paradigm\config.yml","0","0","15","0","15","0","0","15","15","0","15","0","15","15","15","0","15","0","15","0","38.70289291512979","50","Wed Jul 10 15:33:32 2024","20","The main experiment item","False","4028.0001163482666","133057","pygame-experiment-visual-world-paradigm.osexp","C:\Users\yarbus\Desktop\Team Cat\visual-word-paradigm","black","0","0","medium-open","1000","False","mono","False","32","no","black","no","yes","1080","30","Look at the screen and listen carefully. press any key to continue","True","mono","black","32","None","None","c","legacy","-1","chicken","15","15","carnival","C:/Users/yarbus/Desktop/Team Cat/visual-word-paradigm/trials/subject-6.csv","2000","legacy","Melodramatic Milgram","4.0.13","False","mono","black","32","None","380","Pause. Look at the fixation dot in order to continue.","30000","-480","480","-480","480","270","270","-270","-270","1000","0","2","legacy","At the carnival, the girl ate cotton candy.","500","1024","2","3.5280001163482666","48000","-16","C:\Users\yarbus\AppData\Local\Temp\tmprtf957ee.opensesame_pool\30_cottoncandy.ogg","badminton","armchair","boxingglove","cottoncandy","badminton","armchair","boxingglove","cottoncandy","experiment","cottoncandy","6","even","2400","TR","282669.0","C:\Users\yarbus\Desktop\Team Cat\visual-word-paradigm\temp","2210","119838","276355","444","276355","670","119837","276278","284781","NA","282623","626","277401","276314","276076","NA","278522","133059","276301","448","experiment-visual-word-paradigm","284669.0","ate","1970","wolf.mp4","1920"
"42_bicycle.ogg","white","legacy","True","C:\Users\yarbus\Desktop\Team Cat\visual-word-paradigm\temp","legacy","legacy","static","C:\Users\yarbus\Desktop\Team Cat\visual-word-paradigm\config.yml","0","0","16","0","16","0","0","16","16","0","16","0","16","16","16","0","16","0","16","0","32.745644415097395","50","Wed Jul 10 15:33:32 2024","20","The main experiment item","False","4292.00005531311","133057","pygame-experiment-visual-world-paradigm.osexp","C:\Users\yarbus\Desktop\Team Cat\visual-word-paradigm","black","0","0","medium-open","1000","False","mono","False","32","no","black","no","yes","1080","42","Look at the screen and listen carefully. press any key to continue","True","mono","black","32","None","None","c","legacy","-1","chicken","16","16","garage","C:/Users/yarbus/Desktop/Team Cat/visual-word-paradigm/trials/subject-6.csv","2000","legacy","Melodramatic Milgram","4.0.13","False","mono","black","32","None","380","Pause. Look at the fixation dot in order to continue.","30000","-480","480","-480","480","270","270","-270","-270","1000","0","2","legacy","In the garage, the girl fixed her bicycle.","500","1024","2","3.7920000553131104","48000","-16","C:\Users\yarbus\AppData\Local\Temp\tmprtf957ee.opensesame_pool\42_bicycle.ogg","bicycle","clothes","patioumbrella","card","bicycle","clothes","patioumbrella","card","experiment","bicycle","6","even","2516","BL","291566.0","C:\Users\yarbus\Desktop\Team Cat\visual-word-paradigm\temp","2210","119838","285045","444","285045","670","119837","284987","294481","NA","291520","626","286089","285016","284784","NA","287158","133059","285015","448","experiment-visual-word-paradigm","293566.0","fixed","1627","wolf.mp4","1920"
"48_cigarette.ogg","white","legacy","True","C:\Users\yarbus\Desktop\Team Cat\visual-word-paradigm\temp","legacy","legacy","static","C:\Users\yarbus\Desktop\Team Cat\visual-word-paradigm\config.yml","0","0","17","0","17","0","0","17","17","0","17","0","17","17","17","0","17","0","17","0","39.064569317989395","50","Wed Jul 10 15:33:32 2024","20","The main experiment item","False","4003.999948501587","133057","pygame-experiment-visual-world-paradigm.osexp","C:\Users\yarbus\Desktop\Team Cat\visual-word-paradigm","black","0","0","medium-open","1000","False","mono","False","32","no","black","no","yes","1080","48","Look at the screen and listen carefully. press any key to continue","True","mono","black","32","None","None","c","legacy","-1","chicken","17","17","terrace","C:/Users/yarbus/Desktop/Team Cat/visual-word-paradigm/trials/subject-6.csv","2000","legacy","Melodramatic Milgram","4.0.13","False","mono","black","32","None","380","Pause. Look at the fixation dot in order to continue.","30000","-480","480","-480","480","270","270","-270","-270","1000","0","2","legacy","On the terrace, the girl smoked a cigarette.","500","1024","2","3.503999948501587","48000","-16","C:\Users\yarbus\AppData\Local\Temp\tmprtf957ee.opensesame_pool\48_cigarette.ogg","cigarette","bicycle","fishing","car","cigarette","bicycle","fishing","car","experiment","cigarette","6","even","2273","BL","301034.0","C:\Users\yarbus\Desktop\Team Cat\visual-word-paradigm\temp","2210","119838","294818","444","294819","670","119837","294747","303038","NA","300989","626","295865","294781","294494","NA","296920","133059","294770","448","experiment-visual-word-paradigm","303034.0","smoked","1546","wolf.mp4","1920"
"54_cd.ogg","white","legacy","True","C:\Users\yarbus\Desktop\Team Cat\visual-word-paradigm\temp","legacy","legacy","static","C:\Users\yarbus\Desktop\Team Cat\visual-word-paradigm\config.yml","0","0","18","0","18","0","0","18","18","0","18","0","18","18","18","0","18","0","18","0","48.854266432318845","50","Wed Jul 10 15:33:32 2024","20","The main experiment item","False","4099.999904632568","133057","pygame-experiment-visual-world-paradigm.osexp","C:\Users\yarbus\Desktop\Team Cat\visual-word-paradigm","black","0","0","medium-open","1000","False","mono","False","32","no","black","no","yes","1080","54","Look at the screen and listen carefully. press any key to continue","True","mono","black","32","None","None","c","legacy","-1","chicken","18","18","car","C:/Users/yarbus/Desktop/Team Cat/visual-word-paradigm/trials/subject-6.csv","2000","legacy","Melodramatic Milgram","4.0.13","False","mono","black","32","None","380","Pause. Look at the fixation dot in order to continue.","30000","-480","480","-480","480","270","270","-270","-270","1000","0","2","legacy","In the car, the girl listened to a CD.","500","1024","2","3.5999999046325684","48000","-16","C:\Users\yarbus\AppData\Local\Temp\tmprtf957ee.opensesame_pool\54_cd.ogg","moon","cd","ceilingfan","brick","moon","cd","ceilingfan","brick","experiment","cd","6","even","2643","BR","309634.0","C:\Users\yarbus\Desktop\Team Cat\visual-word-paradigm\temp","2210","119838","303297","444","303297","670","119837","303231","311721","NA","309579","626","304331","303268","303040","NA","305401","133059","303255","448","experiment-visual-word-paradigm","311634.0","listened","1529","wolf.mp4","1920"
"22_dog.ogg","white","legacy","True","C:\Users\yarbus\Desktop\Team Cat\visual-word-paradigm\temp","legacy","legacy","motion","C:\Users\yarbus\Desktop\Team Cat\visual-word-paradigm\config.yml","0","0","19","0","19","0","0","19","19","0","19","0","19","19","19","0","19","0","19","0","22.46020047996009","50","Wed Jul 10 15:33:32 2024","20","The main experiment item","False","3523.9999294281006","133057","pygame-experiment-visual-world-paradigm.osexp","C:\Users\yarbus\Desktop\Team Cat\visual-word-paradigm","black","0","0","medium-open","1000","False","mono","False","32","no","black","no","yes","1080","22","Look at the screen and listen carefully. press any key to continue","True","mono","black","32","None","None","c","legacy","-1","chicken","19","19","park","C:/Users/yarbus/Desktop/Team Cat/visual-word-paradigm/trials/subject-6.csv","2000","legacy","Melodramatic Milgram","4.0.13","False","mono","black","32","None","380","Pause. Look at the fixation dot in order to continue.","30000","-480","480","-480","480","270","270","-270","-270","1000","0","2","legacy","At the park, the girl walked a dog. ","500","1024","2","3.0239999294281006","48000","-16","C:\Users\yarbus\AppData\Local\Temp\tmprtf957ee.opensesame_pool\22_dog.ogg","calculator","mitten","button","dog","calculator","mitten","button","dog","experiment","dog","6","even","2241","TR","317810.0","C:\Users\yarbus\Desktop\Team Cat\visual-word-paradigm\temp","2210","119838","311976","444","311976","670","119837","311905","319810","NA","317771","626","313021","311948","311734","NA","314175","133059","311934","448","experiment-visual-word-paradigm","319810.0","walked","1379","wolf.mp4","1920"
"10_guitar.ogg","white","legacy","True","C:\Users\yarbus\Desktop\Team Cat\visual-word-paradigm\temp","legacy","legacy","motion","C:\Users\yarbus\Desktop\Team Cat\visual-word-paradigm\config.yml","0","0","20","0","20","0","0","20","20","0","20","0","20","20","20","0","20","0","20","0","39.37286455009342","50","Wed Jul 10 15:33:32 2024","20","The main experiment item","False","4220.0000286102295","133057","pygame-experiment-visual-world-paradigm.osexp","C:\Users\yarbus\Desktop\Team Cat\visual-word-paradigm","black","0","0","medium-open","1000","False","mono","False","32","no","black","no","yes","1080","10","Look at the screen and listen carefully. press any key to continue","True","mono","black","32","None","None","c","legacy","-1","chicken","20","20","musical class","C:/Users/yarbus/Desktop/Team Cat/visual-word-paradigm/trials/subject-6.csv","2000","legacy","Melodramatic Milgram","4.0.13","False","mono","black","32","None","380","Pause. Look at the fixation dot in order to continue.","30000","-480","480","-480","480","270","270","-270","-270","1000","0","2","legacy","During musical class, the girl played guitar. ","500","1024","2","3.7200000286102295","48000","-16","C:\Users\yarbus\AppData\Local\Temp\tmprtf957ee.opensesame_pool\10_guitar.ogg","chicken","bowl","guitar","hiking","chicken","bowl","guitar","hiking","experiment","guitar","6","even","2750","TL","326587.0","C:\Users\yarbus\Desktop\Team Cat\visual-word-paradigm\temp","2210","119838","320023","444","320023","670","119837","319955","328587","NA","326541","626","321063","319986","319812","NA","322231","133059","319978","448","experiment-visual-word-paradigm","328587.0","played","1897","wolf.mp4","1920"
"40_shopping_cart.ogg","white","legacy","True","C:\Users\yarbus\Desktop\Team Cat\visual-word-paradigm\temp","legacy","legacy","static","C:\Users\yarbus\Desktop\Team Cat\visual-word-paradigm\config.yml","0","0","21","0","21","0","0","21","21","0","21","0","21","21","21","0","21","0","21","0","43.61504834068169","50","Wed Jul 10 15:33:32 2024","20","The main experiment item","False","4796.000003814697","133057","pygame-experiment-visual-world-paradigm.osexp","C:\Users\yarbus\Desktop\Team Cat\visual-word-paradigm","black","0","0","medium-open","1000","False","mono","False","32","no","black","no","yes","1080","40","Look at the screen and listen carefully. press any key to continue","True","mono","black","32","None","None","c","legacy","-1","chicken","21","21","grocery store","C:/Users/yarbus/Desktop/Team Cat/visual-word-paradigm/trials/subject-6.csv","2000","legacy","Melodramatic Milgram","4.0.13","False","mono","black","32","None","380","Pause. Look at the fixation dot in order to continue.","30000","-480","480","-480","480","270","270","-270","-270","1000","0","2","legacy","At the grocery store, the girl pushed the shopping cart","500","1024","2","4.296000003814697","48000","-16","C:\Users\yarbus\AppData\Local\Temp\tmprtf957ee.opensesame_pool\40_shopping_cart.ogg","shoppingcart","nintendods","bulldozer","paperclip","shoppingcart","nintendods","bulldozer","paperclip","experiment","shoppingcart","6","even","3355","BL","335853.0","C:\Users\yarbus\Desktop\Team Cat\visual-word-paradigm\temp","2210","119838","328818","444","328818","670","119837","328756","337868","NA","335802","626","329859","328791","328600","NA","330946","133059","328779","448","experiment-visual-word-paradigm","337853.0","pushed","2390","wolf.mp4","1920"
"20_seashells.ogg","white","legacy","True","C:\Users\yarbus\Desktop\Team Cat\visual-word-paradigm\temp","legacy","legacy","motion","C:\Users\yarbus\Desktop\Team Cat\visual-word-paradigm\config.yml","0","0","22","0","22","0","0","22","22","0","22","0","22","22","22","0","22","0","22","0","47.96795896595976","50","Wed Jul 10 15:33:32 2024","20","The main experiment item","False","3980.0000190734863","133057","pygame-experiment-visual-world-paradigm.osexp","C:\Users\yarbus\Desktop\Team Cat\visual-word-paradigm","black","0","0","medium-open","1000","False","mono","False","32","no","black","no","yes","1080","20","Look at the screen and listen carefully. press any key to continue","True","mono","black","32","None","None","c","legacy","-1","chicken","22","22","beach","C:/Users/yarbus/Desktop/Team Cat/visual-word-paradigm/trials/subject-6.csv","2000","legacy","Melodramatic Milgram","4.0.13","False","mono","black","32","None","380","Pause. Look at the fixation dot in order to continue.","30000","-480","480","-480","480","270","270","-270","-270","1000","0","2","legacy","At the beach, the girl collected seashells.","500","1024","2","3.4800000190734863","48000","-16","C:\Users\yarbus\AppData\Local\Temp\tmprtf957ee.opensesame_pool\20_seashells.ogg","documents","basketballhoop","apple","seashells","documents","basketballhoop","apple","seashells","experiment","seashells","6","even","2070","TR","344464.0","C:\Users\yarbus\Desktop\Team Cat\visual-word-paradigm\temp","2210","119838","338136","444","338136","670","119837","338068","346484","NA","344416","626","339181","338104","337881","NA","340313","133059","338092","448","experiment-visual-word-paradigm","346464.0","built","1300","wolf.mp4","1920"
"43_car.ogg","white","legacy","True","C:\Users\yarbus\Desktop\Team Cat\visual-word-paradigm\temp","legacy","legacy","static","C:\Users\yarbus\Desktop\Team Cat\visual-word-paradigm\config.yml","0","0","23","0","23","0","0","23","23","0","23","0","23","23","23","0","23","0","23","0","32.908842203881974","50","Wed Jul 10 15:33:32 2024","20","The main experiment item","False","3956.0000896453857","133057","pygame-experiment-visual-world-paradigm.osexp","C:\Users\yarbus\Desktop\Team Cat\visual-word-paradigm","black","0","0","medium-open","1000","False","mono","False","32","no","black","no","yes","1080","43","Look at the screen and listen carefully. press any key to continue","True","mono","black","32","None","None","c","legacy","-1","chicken","23","23","garage","C:/Users/yarbus/Desktop/Team Cat/visual-word-paradigm/trials/subject-6.csv","2000","legacy","Melodramatic Milgram","4.0.13","False","mono","black","32","None","380","Pause. Look at the fixation dot in order to continue.","30000","-480","480","-480","480","270","270","-270","-270","1000","0","2","legacy","In the garage, the girl washed her car.","500","1024","2","3.4560000896453857","48000","-16","C:\Users\yarbus\AppData\Local\Temp\tmprtf957ee.opensesame_pool\43_car.ogg","car","cd","brainmodel","bear","car","cd","brainmodel","bear","experiment","car","6","even","2227","BL","352921.0","C:\Users\yarbus\Desktop\Team Cat\visual-word-paradigm\temp","2210","119838","346734","444","346734","670","119837","346668","354921","NA","352873","626","347764","346706","346495","NA","348840","133059","346693","448","experiment-visual-word-paradigm","354921.0","washed","1398","wolf.mp4","1920"
"61_cellphone.ogg","white","legacy","True","C:\Users\yarbus\Desktop\Team Cat\visual-word-paradigm\temp","legacy","legacy","static","C:\Users\yarbus\Desktop\Team Cat\visual-word-paradigm\config.yml","0","0","24","0","24","0","0","24","24","0","24","0","24","24","24","0","24","0","24","0","42.41008049226033","50","Wed Jul 10 15:33:32 2024","20","The main experiment item","False","4868.000030517578","133057","pygame-experiment-visual-world-paradigm.osexp","C:\Users\yarbus\Desktop\Team Cat\visual-word-paradigm","black","0","0","medium-open","1000","False","mono","False","32","no","black","no","yes","1080","61","Look at the screen and listen carefully. press any key to continue","True","mono","black","32","None","None","c","legacy","-1","chicken","24","24","cinema","C:/Users/yarbus/Desktop/Team Cat/visual-word-paradigm/trials/subject-6.csv","2000","legacy","Melodramatic Milgram","4.0.13","False","mono","black","32","None","380","Pause. Look at the fixation dot in order to continue.","30000","-480","480","-480","480","270","270","-270","-270","1000","0","2","legacy","In the cinema, the girl turned off her cellphone.","500","1024","2","4.368000030517578","48000","-16","C:\Users\yarbus\AppData\Local\Temp\tmprtf957ee.opensesame_pool\61_cellphone.ogg","documents","cellphone","badminton","bathtub","documents","cellphone","badminton","bathtub","experiment","cellphone","6","even","2297","BR","362249.0","C:\Users\yarbus\Desktop\Team Cat\visual-word-paradigm\temp","2210","119838","355172","444","355172","670","119837","355109","364260","NA","362208","626","356207","355143","354922","NA","357277","133059","355132","448","experiment-visual-word-paradigm","364249.0","turned off","1473","wolf.mp4","1920"
"27_treadmill.ogg","white","legacy","True","C:\Users\yarbus\Desktop\Team Cat\visual-word-paradigm\temp","legacy","legacy","motion","C:\Users\yarbus\Desktop\Team Cat\visual-word-paradigm\config.yml","0","0","25","0","25","0","0","25","25","0","25","0","25","25","25","0","25","0","25","0","40.76095004192127","50","Wed Jul 10 15:33:32 2024","20","The main experiment item","False","4339.9999141693115","133057","pygame-experiment-visual-world-paradigm.osexp","C:\Users\yarbus\Desktop\Team Cat\visual-word-paradigm","black","0","0","medium-open","1000","False","mono","False","32","no","black","no","yes","1080","27","Look at the screen and listen carefully. press any key to continue","True","mono","black","32","None","None","c","legacy","-1","chicken","25","25","gym","C:/Users/yarbus/Desktop/Team Cat/visual-word-paradigm/trials/subject-6.csv","2000","legacy","Melodramatic Milgram","4.0.13","False","mono","black","32","None","380","Pause. Look at the fixation dot in order to continue.","30000","-480","480","-480","480","270","270","-270","-270","1000","0","2","legacy","At the gym, the girl ran on the treadmill.","500","1024","2","3.8399999141693115","48000","-16","C:\Users\yarbus\AppData\Local\Temp\tmprtf957ee.opensesame_pool\27_treadmill.ogg","oven","duck","belt","treadmill","oven","duck","belt","treadmill","experiment","treadmill","6","even","2689","TR","371166.0","C:\Users\yarbus\Desktop\Team Cat\visual-word-paradigm\temp","2210","119838","364504","444","364504","670","119837","364445","373182","NA","371131","626","365546","364470","364273","NA","366699","133059","364468","448","experiment-visual-word-paradigm","373166.0","ran","1849","wolf.mp4","1920"
"36_marathon.ogg","white","legacy","True","C:\Users\yarbus\Desktop\Team Cat\visual-word-paradigm\temp","legacy","legacy","static","C:\Users\yarbus\Desktop\Team Cat\visual-word-paradigm\config.yml","0","0","26","0","26","0","0","26","26","0","26","0","26","26","26","0","26","0","26","0","20.988414953016363","50","Wed Jul 10 15:33:32 2024","20","The main experiment item","False","3835.9999656677246","133057","pygame-experiment-visual-world-paradigm.osexp","C:\Users\yarbus\Desktop\Team Cat\visual-word-paradigm","black","0","0","medium-open","1000","False","mono","False","32","no","black","no","yes","1080","36","Look at the screen and listen carefully. press any key to continue","True","mono","black","32","None","None","c","legacy","-1","chicken","26","26","stadium","C:/Users/yarbus/Desktop/Team Cat/visual-word-paradigm/trials/subject-6.csv","2000","legacy","Melodramatic Milgram","4.0.13","False","mono","black","32","None","380","Pause. Look at the fixation dot in order to continue.","30000","-480","480","-480","480","270","270","-270","-270","1000","0","2","legacy","At the stadium, the girl ran a marathon.","500","1024","2","3.3359999656677246","48000","-16","C:\Users\yarbus\AppData\Local\Temp\tmprtf957ee.opensesame_pool\36_marathon.ogg","marathon","dishes","mouse","bust","marathon","dishes","mouse","bust","experiment","marathon","6","even","2382","BL","379441.0","C:\Users\yarbus\Desktop\Team Cat\visual-word-paradigm\temp","2210","119838","373410","444","373410","670","119837","373346","381441","NA","379388","626","374454","373379","373198","NA","375509","133059","373370","448","experiment-visual-word-paradigm","381441.0","ran","1389","wolf.mp4","1920"
"37_vegetables.ogg","white","legacy","True","C:\Users\yarbus\Desktop\Team Cat\visual-word-paradigm\temp","legacy","legacy","static","C:\Users\yarbus\Desktop\Team Cat\visual-word-paradigm\config.yml","0","0","27","0","27","0","0","27","27","0","27","0","27","27","27","0","27","0","27","0","10.645045450349269","50","Wed Jul 10 15:33:32 2024","20","The main experiment item","False","4003.999948501587","133057","pygame-experiment-visual-world-paradigm.osexp","C:\Users\yarbus\Desktop\Team Cat\visual-word-paradigm","black","0","0","medium-open","1000","False","mono","False","32","no","black","no","yes","1080","37","Look at the screen and listen carefully. press any key to continue","True","mono","black","32","None","None","c","legacy","-1","chicken","27","27","market","C:/Users/yarbus/Desktop/Team Cat/visual-word-paradigm/trials/subject-6.csv","2000","legacy","Melodramatic Milgram","4.0.13","False","mono","black","32","None","380","Pause. Look at the fixation dot in order to continue.","30000","-480","480","-480","480","270","270","-270","-270","1000","0","2","legacy","At the market, the girl bought fresh vegetables.","500","1024","2","3.503999948501587","48000","-16","C:\Users\yarbus\AppData\Local\Temp\tmprtf957ee.opensesame_pool\37_vegetables.ogg","vegetables","pacifier","duck","bicycle","vegetables","pacifier","duck","bicycle","experiment","vegetables","6","even","2344","BL","387934.0","C:\Users\yarbus\Desktop\Team Cat\visual-word-paradigm\temp","2210","119838","381687","444","381687","670","119837","381624","389934","NA","387883","626","382738","381656","381442","NA","383812","133059","381647","448","experiment-visual-word-paradigm","389934.0","bought","1606","wolf.mp4","1920"
"05_cookie.ogg","white","legacy","True","C:\Users\yarbus\Desktop\Team Cat\visual-word-paradigm\temp","legacy","legacy","motion","C:\Users\yarbus\Desktop\Team Cat\visual-word-paradigm\config.yml","0","0","28","0","28","0","0","28","28","0","28","0","28","28","28","0","28","0","28","0","34.462320711176716","50","Wed Jul 10 15:33:32 2024","20","The main experiment item","False","3907.9999923706055","133057","pygame-experiment-visual-world-paradigm.osexp","C:\Users\yarbus\Desktop\Team Cat\visual-word-paradigm","black","0","0","medium-open","1000","False","mono","False","32","no","black","no","yes","1080","5","Look at the screen and listen carefully. press any key to continue","True","mono","black","32","None","None","c","legacy","-1","chicken","28","28","breakfast","C:/Users/yarbus/Desktop/Team Cat/visual-word-paradigm/trials/subject-6.csv","2000","legacy","Melodramatic Milgram","4.0.13","False","mono","black","32","None","380","Pause. Look at the fixation dot in order to continue.","30000","-480","480","-480","480","270","270","-270","-270","1000","0","2","legacy","At breakfast, the girl ate a cookie.","500","1024","2","3.4079999923706055","48000","-16","C:\Users\yarbus\AppData\Local\Temp\tmprtf957ee.opensesame_pool\05_cookie.ogg","pants","nailclipper","cookie","movie","pants","nailclipper","cookie","movie","experiment","cookie","6","even","2350","TL","396384.0","C:\Users\yarbus\Desktop\Team Cat\visual-word-paradigm\temp","2210","119838","390150","444","390151","670","119837","390085","398731","NA","396344","626","391197","390121","389947","NA","392290","133059","390109","448","experiment-visual-word-paradigm","398384.0","ate","1740","wolf.mp4","1920"
"49_blood.ogg","white","legacy","True","C:\Users\yarbus\Desktop\Team Cat\visual-word-paradigm\temp","legacy","legacy","static","C:\Users\yarbus\Desktop\Team Cat\visual-word-paradigm\config.yml","0","0","29","0","29","0","0","29","29","0","29","0","29","29","29","0","29","0","29","0","42.960441450245824","50","Wed Jul 10 15:33:32 2024","20","The main experiment item","False","4267.999887466431","133057","pygame-experiment-visual-world-paradigm.osexp","C:\Users\yarbus\Desktop\Team Cat\visual-word-paradigm","black","0","0","medium-open","1000","False","mono","False","32","no","black","no","yes","1080","49","Look at the screen and listen carefully. press any key to continue","True","mono","black","32","None","None","c","legacy","-1","chicken","29","29","hospital","C:/Users/yarbus/Desktop/Team Cat/visual-word-paradigm/trials/subject-6.csv","2000","legacy","Melodramatic Milgram","4.0.13","False","mono","black","32","None","380","Pause. Look at the fixation dot in order to continue.","30000","-480","480","-480","480","270","270","-270","-270","1000","0","2","legacy","In the hospital, the girl donated blood.","500","1024","2","3.7679998874664307","48000","-16","C:\Users\yarbus\AppData\Local\Temp\tmprtf957ee.opensesame_pool\49_blood.ogg","calendar","blood","archery","boxingglove","calendar","blood","archery","boxingglove","experiment","blood","6","even","2734","BR","405476.0","C:\Users\yarbus\Desktop\Team Cat\visual-word-paradigm\temp","2210","119838","398980","444","398980","670","119837","398915","407476","NA","405429","626","400029","398944","398745","NA","401106","133059","398942","448","experiment-visual-word-paradigm","407476.0","donated","1890","wolf.mp4","1920"
"26_weights.ogg","white","legacy","True","C:\Users\yarbus\Desktop\Team Cat\visual-word-paradigm\temp","legacy","legacy","motion","C:\Users\yarbus\Desktop\Team Cat\visual-word-paradigm\config.yml","0","0","30","0","30","0","0","30","30","0","30","0","30","30","30","0","30","0","30","0","48.86339152371641","50","Wed Jul 10 15:33:32 2024","20","The main experiment item","False","3907.9999923706055","133057","pygame-experiment-visual-world-paradigm.osexp","C:\Users\yarbus\Desktop\Team Cat\visual-word-paradigm","black","0","0","medium-open","1000","False","mono","False","32","no","black","no","yes","1080","26","Look at the screen and listen carefully. press any key to continue","True","mono","black","32","None","None","c","legacy","-1","chicken","30","30","gym","C:/Users/yarbus/Desktop/Team Cat/visual-word-paradigm/trials/subject-6.csv","2000","legacy","Melodramatic Milgram","4.0.13","False","mono","black","32","None","380","Pause. Look at the fixation dot in order to continue.","30000","-480","480","-480","480","270","270","-270","-270","1000","0","2","legacy","At the gym, the girl lifted weights.","500","1024","2","3.4079999923706055","48000","-16","C:\Users\yarbus\AppData\Local\Temp\tmprtf957ee.opensesame_pool\26_weights.ogg","croissant","horse","paintcan","weights","croissant","horse","paintcan","weights","experiment","weights","6","even","2831","TR","413830.0","C:\Users\yarbus\Desktop\Team Cat\visual-word-paradigm\temp","2210","119838","407694","444","407694","670","119837","407634","415862","NA","413781","626","408725","407667","407489","NA","409805","133059","407657","448","experiment-visual-word-paradigm","415830.0","lifted","1825","wolf.mp4","1920"
"53_darts.ogg","white","legacy","True","C:\Users\yarbus\Desktop\Team Cat\visual-word-paradigm\temp","legacy","legacy","static","C:\Users\yarbus\Desktop\Team Cat\visual-word-paradigm\config.yml","0","0","31","0","31","0","0","31","31","0","31","0","31","31","31","0","31","0","31","0","43.9824804757531","50","Wed Jul 10 15:33:32 2024","20","The main experiment item","False","3907.9999923706055","133057","pygame-experiment-visual-world-paradigm.osexp","C:\Users\yarbus\Desktop\Team Cat\visual-word-paradigm","black","0","0","medium-open","1000","False","mono","False","32","no","black","no","yes","1080","53","Look at the screen and listen carefully. press any key to continue","True","mono","black","32","None","None","c","legacy","-1","chicken","31","31","bar","C:/Users/yarbus/Desktop/Team Cat/visual-word-paradigm/trials/subject-6.csv","2000","legacy","Melodramatic Milgram","4.0.13","False","mono","black","32","None","380","Pause. Look at the fixation dot in order to continue.","30000","-480","480","-480","480","270","270","-270","-270","1000","0","2","legacy","In the bar, the girl played darts. ","500","1024","2","3.4079999923706055","48000","-16","C:\Users\yarbus\AppData\Local\Temp\tmprtf957ee.opensesame_pool\53_darts.ogg","dog","dart","popcorn","shoppingcart","dog","dart","popcorn","shoppingcart","experiment","dart","6","even","2809","BR","422236.0","C:\Users\yarbus\Desktop\Team Cat\visual-word-paradigm\temp","2210","119838","416096","444","416096","670","119837","416048","424420","NA","422190","626","417144","416071","415874","NA","418211","133059","416071","448","experiment-visual-word-paradigm","424236.0","played","1930","wolf.mp4","1920"
"31_landscape.ogg","white","legacy","True","C:\Users\yarbus\Desktop\Team Cat\visual-word-paradigm\temp","legacy","legacy","motion","C:\Users\yarbus\Desktop\Team Cat\visual-word-paradigm\config.yml","0","0","32","0","32","0","0","32","32","0","32","0","32","32","32","0","32","0","32","0","44.448349647652805","50","Wed Jul 10 15:33:32 2024","20","The main experiment item","False","4220.0000286102295","133057","pygame-experiment-visual-world-paradigm.osexp","C:\Users\yarbus\Desktop\Team Cat\visual-word-paradigm","black","0","0","medium-open","1000","False","mono","False","32","no","black","no","yes","1080","31","Look at the screen and listen carefully. press any key to continue","True","mono","black","32","None","None","c","legacy","-1","chicken","32","32","art class","C:/Users/yarbus/Desktop/Team Cat/visual-word-paradigm/trials/subject-6.csv","2000","legacy","Melodramatic Milgram","4.0.13","False","mono","black","32","None","380","Pause. Look at the fixation dot in order to continue.","30000","-480","480","-480","480","270","270","-270","-270","1000","0","2","legacy","During art class, the girl painted a landscape.","500","1024","2","3.7200000286102295","48000","-16","C:\Users\yarbus\AppData\Local\Temp\tmprtf957ee.opensesame_pool\31_landscape.ogg","cats","boxtruck","belt","landscapepainting","cats","boxtruck","belt","landscapepainting","experiment","landscapepainting","6","even","2742","TR","431363.0","C:\Users\yarbus\Desktop\Team Cat\visual-word-paradigm\temp","2210","119838","424679","444","424679","670","119837","424609","433363","NA","431323","626","425720","424650","424431","NA","426979","133059","424637","448","experiment-visual-word-paradigm","433363.0","painted","2015","wolf.mp4","1920"
"14_card.ogg","white","legacy","True","C:\Users\yarbus\Desktop\Team Cat\visual-word-paradigm\temp","legacy","legacy","motion","C:\Users\yarbus\Desktop\Team Cat\visual-word-paradigm\config.yml","0","0","33","0","33","0","0","33","33","0","33","0","33","33","33","0","33","0","33","0","46.47080096404619","50","Wed Jul 10 15:33:32 2024","20","The main experiment item","False","4075.999975204468","133057","pygame-experiment-visual-world-paradigm.osexp","C:\Users\yarbus\Desktop\Team Cat\visual-word-paradigm","black","0","0","medium-open","1000","False","mono","False","32","no","black","no","yes","1080","14","Look at the screen and listen carefully. press any key to continue","True","mono","black","32","None","None","c","legacy","-1","chicken","33","33","casino","C:/Users/yarbus/Desktop/Team Cat/visual-word-paradigm/trials/subject-6.csv","2000","legacy","Melodramatic Milgram","4.0.13","False","mono","black","32","None","380","Pause. Look at the fixation dot in order to continue.","30000","-480","480","-480","480","270","270","-270","-270","1000","0","2","legacy","At the casino, the girl picked a card. ","500","1024","2","3.5759999752044678","48000","-16","C:\Users\yarbus\AppData\Local\Temp\tmprtf957ee.opensesame_pool\14_card.ogg","vegetables","sandcastle","card","parkfountain","vegetables","sandcastle","card","parkfountain","experiment","card","6","even","2672","TL","439919.0","C:\Users\yarbus\Desktop\Team Cat\visual-word-paradigm\temp","2210","119838","433606","444","433606","670","119837","433552","442254","NA","439873","626","434655","433584","433374","NA","435733","133059","433575","448","experiment-visual-word-paradigm","441919.0","picked","2075","wolf.mp4","1920"
"13_dice.ogg","white","legacy","True","C:\Users\yarbus\Desktop\Team Cat\visual-word-paradigm\temp","legacy","legacy","motion","C:\Users\yarbus\Desktop\Team Cat\visual-word-paradigm\config.yml","0","0","34","0","34","0","0","34","34","0","34","0","34","34","34","0","34","0","34","0","49.514680775705344","50","Wed Jul 10 15:33:32 2024","20","The main experiment item","False","3644.0000534057617","133057","pygame-experiment-visual-world-paradigm.osexp","C:\Users\yarbus\Desktop\Team Cat\visual-word-paradigm","black","0","0","medium-open","1000","False","mono","False","32","no","black","no","yes","1080","13","Look at the screen and listen carefully. press any key to continue","True","mono","black","32","None","None","c","legacy","-1","chicken","34","34","casino","C:/Users/yarbus/Desktop/Team Cat/visual-word-paradigm/trials/subject-6.csv","2000","legacy","Melodramatic Milgram","4.0.13","False","mono","black","32","None","380","Pause. Look at the fixation dot in order to continue.","30000","-480","480","-480","480","270","270","-270","-270","1000","0","2","legacy","At the casino, the girl threw a dice.","500","1024","2","3.1440000534057617","48000","-16","C:\Users\yarbus\AppData\Local\Temp\tmprtf957ee.opensesame_pool\13_dice.ogg","moon","calendar","dice","injection","moon","calendar","dice","injection","experiment","dice","6","even","2221","TL","448535.0","C:\Users\yarbus\Desktop\Team Cat\visual-word-paradigm\temp","2210","119838","442525","444","442525","670","119837","442463","451541","NA","448483","626","443569","442497","442266","NA","444753","133059","442486","448","experiment-visual-word-paradigm","450535.0","threw","1621","wolf.mp4","1920"
"28_rollercoaster.ogg","white","legacy","True","C:\Users\yarbus\Desktop\Team Cat\visual-word-paradigm\temp","legacy","legacy","motion","C:\Users\yarbus\Desktop\Team Cat\visual-word-paradigm\config.yml","0","0","35","0","35","0","0","35","35","0","35","0","35","35","35","0","35","0","35","0","45.029668619700026","50","Wed Jul 10 15:33:32 2024","20","The main experiment item","False","4292.00005531311","133057","pygame-experiment-visual-world-paradigm.osexp","C:\Users\yarbus\Desktop\Team Cat\visual-word-paradigm","black","0","0","medium-open","1000","False","mono","False","32","no","black","no","yes","1080","28","Look at the screen and listen carefully. press any key to continue","True","mono","black","32","None","None","c","legacy","-1","chicken","35","35","carnival","C:/Users/yarbus/Desktop/Team Cat/visual-word-paradigm/trials/subject-6.csv","2000","legacy","Melodramatic Milgram","4.0.13","False","mono","black","32","None","380","Pause. Look at the fixation dot in order to continue.","30000","-480","480","-480","480","270","270","-270","-270","1000","0","2","legacy","At the carnival, the girl rode a roller coaster.","500","1024","2","3.7920000553131104","48000","-16","C:\Users\yarbus\AppData\Local\Temp\tmprtf957ee.opensesame_pool\28_rollercoaster.ogg","picnic","bust","videogame","rollercoaster","picnic","bust","videogame","rollercoaster","experiment","rollercoaster","6","even","2229","TR","458472.0","C:\Users\yarbus\Desktop\Team Cat\visual-word-paradigm\temp","2210","119838","451858","444","451858","670","119837","451791","468081","NA","458427","626","452905","451821","451554","NA","454006","133059","451814","448","experiment-visual-word-paradigm","460472.0","rode","1651","wolf.mp4","1920"
"51_beer.ogg","white","legacy","True","C:\Users\yarbus\Desktop\Team Cat\visual-word-paradigm\temp","legacy","legacy","static","C:\Users\yarbus\Desktop\Team Cat\visual-word-paradigm\config.yml","0","0","36","0","36","0","0","36","36","0","36","0","36","36","36","0","36","0","36","0","49.94526058956949","50","Wed Jul 10 15:33:32 2024","20","The main experiment item","False","3308.000087738037","133057","pygame-experiment-visual-world-paradigm.osexp","C:\Users\yarbus\Desktop\Team Cat\visual-word-paradigm","black","0","0","medium-open","1000","False","mono","False","32","no","black","no","yes","1080","51","Look at the screen and listen carefully. press any key to continue","True","mono","black","32","None","None","c","legacy","-1","chicken","36","36","bar","C:/Users/yarbus/Desktop/Team Cat/visual-word-paradigm/trials/subject-6.csv","2000","legacy","Melodramatic Milgram","4.0.13","False","mono","black","32","None","380","Pause. Look at the fixation dot in order to continue.","30000","-480","480","-480","480","270","270","-270","-270","1000","0","2","legacy","In the bar, the girl drank beer. ","500","1024","2","2.808000087738037","48000","-16","C:\Users\yarbus\AppData\Local\Temp\tmprtf957ee.opensesame_pool\51_beer.ogg","treadmill","beer","bathtub","plants","treadmill","beer","bathtub","plants","experiment","beer","6","even","2090","BR","474573.0","C:\Users\yarbus\Desktop\Team Cat\visual-word-paradigm\temp","2210","119838","469042","444","469042","670","119837","468887","476673","NA","474528","626","470088","468916","468093","NA","471164","133059","468909","448","experiment-visual-word-paradigm","476573.0","drank","1585","wolf.mp4","1920"
"12_egg.ogg","white","legacy","True","C:\Users\yarbus\Desktop\Team Cat\visual-word-paradigm\temp","legacy","legacy","motion","C:\Users\yarbus\Desktop\Team Cat\visual-word-paradigm\config.yml","0","0","37","0","37","0","0","37","37","0","37","0","37","37","37","0","37","0","37","0","46.22308285694494","50","Wed Jul 10 15:33:32 2024","20","The main experiment item","False","3763.9999389648438","133057","pygame-experiment-visual-world-paradigm.osexp","C:\Users\yarbus\Desktop\Team Cat\visual-word-paradigm","black","0","0","medium-open","1000","False","mono","False","32","no","black","no","yes","1080","12","Look at the screen and listen carefully. press any key to continue","True","mono","black","32","None","None","c","legacy","-1","chicken","37","37","farm","C:/Users/yarbus/Desktop/Team Cat/visual-word-paradigm/trials/subject-6.csv","2000","legacy","Melodramatic Milgram","4.0.13","False","mono","black","32","None","380","Pause. Look at the fixation dot in order to continue.","30000","-480","480","-480","480","270","270","-270","-270","1000","0","2","legacy","At the farm, the girl picked the egg. ","500","1024","2","3.2639999389648438","48000","-16","C:\Users\yarbus\AppData\Local\Temp\tmprtf957ee.opensesame_pool\12_egg.ogg","battery","videogame","egg","oven","battery","videogame","egg","oven","experiment","egg","6","even","2263","TL","483039.0","C:\Users\yarbus\Desktop\Team Cat\visual-word-paradigm\temp","2210","119838","476900","444","476900","670","119837","476847","485077","NA","482994","626","477929","476877","476674","NA","479098","133059","476870","448","experiment-visual-word-paradigm","485039.0","picked","1380","wolf.mp4","1920"
"35_soccermatch.ogg","white","legacy","True","C:\Users\yarbus\Desktop\Team Cat\visual-word-paradigm\temp","legacy","legacy","static","C:\Users\yarbus\Desktop\Team Cat\visual-word-paradigm\config.yml","0","0","38","0","38","0","0","38","38","0","38","0","38","38","38","0","38","0","38","0","45.26949155976902","50","Wed Jul 10 15:33:32 2024","20","The main experiment item","False","4292.00005531311","133057","pygame-experiment-visual-world-paradigm.osexp","C:\Users\yarbus\Desktop\Team Cat\visual-word-paradigm","black","0","0","medium-open","1000","False","mono","False","32","no","black","no","yes","1080","35","Look at the screen and listen carefully. press any key to continue","True","mono","black","32","None","None","c","legacy","-1","chicken","38","38","stadium","C:/Users/yarbus/Desktop/Team Cat/visual-word-paradigm/trials/subject-6.csv","2000","legacy","Melodramatic Milgram","4.0.13","False","mono","black","32","None","380","Pause. Look at the fixation dot in order to continue.","30000","-480","480","-480","480","270","270","-270","-270","1000","0","2","legacy","At the stadium, the girl watched a soccer match.","500","1024","2","3.7920000553131104","48000","-16","C:\Users\yarbus\AppData\Local\Temp\tmprtf957ee.opensesame_pool\35_soccermatch.ogg","soccer","parkfountain","bottlecap","nintendods","soccer","parkfountain","bottlecap","nintendods","experiment","soccer","6","even","2580","BL","491845.0","C:\Users\yarbus\Desktop\Team Cat\visual-word-paradigm\temp","2210","119838","485317","444","485317","670","119837","485261","494795","NA","491783","626","486355","485286","485080","NA","487433","133059","485284","448","experiment-visual-word-paradigm","493845.0","watched","1652","wolf.mp4","1920"
"21_kite.ogg","white","legacy","True","C:\Users\yarbus\Desktop\Team Cat\visual-word-paradigm\temp","legacy","legacy","motion","C:\Users\yarbus\Desktop\Team Cat\visual-word-paradigm\config.yml","0","0","39","0","39","0","0","39","39","0","39","0","39","39","39","0","39","0","39","0","49.31384095849764","50","Wed Jul 10 15:33:32 2024","20","The main experiment item","False","3884.000062942505","133057","pygame-experiment-visual-world-paradigm.osexp","C:\Users\yarbus\Desktop\Team Cat\visual-word-paradigm","black","0","0","medium-open","1000","False","mono","False","32","no","black","no","yes","1080","21","Look at the screen and listen carefully. press any key to continue","True","mono","black","32","None","None","c","legacy","-1","chicken","39","39","park","C:/Users/yarbus/Desktop/Team Cat/visual-word-paradigm/trials/subject-6.csv","2000","legacy","Melodramatic Milgram","4.0.13","False","mono","black","32","None","380","Pause. Look at the fixation dot in order to continue.","30000","-480","480","-480","480","270","270","-270","-270","1000","0","2","legacy","At the park, the girl flew a kite.","500","1024","2","3.384000062942505","48000","-16","C:\Users\yarbus\AppData\Local\Temp\tmprtf957ee.opensesame_pool\21_kite.ogg","cake","pool","blood","kite","cake","pool","blood","kite","experiment","kite","6","even","2440","TR","501256.0","C:\Users\yarbus\Desktop\Team Cat\visual-word-paradigm\temp","2210","119838","495137","444","495137","670","119837","495053","503826","NA","501211","626","496172","495091","494797","NA","497246","133059","495076","448","experiment-visual-word-paradigm","503256.0","flew","1354","wolf.mp4","1920"
"23_novel.ogg","white","legacy","True","C:\Users\yarbus\Desktop\Team Cat\visual-word-paradigm\temp","legacy","legacy","motion","C:\Users\yarbus\Desktop\Team Cat\visual-word-paradigm\config.yml","0","0","40","0","40","0","0","40","40","0","40","0","40","40","40","0","40","0","40","0","43.23868642778137","50","Wed Jul 10 15:33:32 2024","20","The main experiment item","False","3523.9999294281006","133057","pygame-experiment-visual-world-paradigm.osexp","C:\Users\yarbus\Desktop\Team Cat\visual-word-paradigm","black","0","0","medium-open","1000","False","mono","False","32","no","black","no","yes","1080","23","Look at the screen and listen carefully. press any key to continue","True","mono","black","32","None","None","c","legacy","-1","chicken","40","40","library","C:/Users/yarbus/Desktop/Team Cat/visual-word-paradigm/trials/subject-6.csv","2000","legacy","Melodramatic Milgram","4.0.13","False","mono","black","32","None","380","Pause. Look at the fixation dot in order to continue.","30000","-480","480","-480","480","270","270","-270","-270","1000","0","2","legacy","In the library, the girl read a novel.","500","1024","2","3.0239999294281006","48000","-16","C:\Users\yarbus\AppData\Local\Temp\tmprtf957ee.opensesame_pool\23_novel.ogg","guitar","bracelet","marshmallow","novel","guitar","bracelet","marshmallow","novel","experiment","novel","6","even","2220","TR","509996.0","C:\Users\yarbus\Desktop\Team Cat\visual-word-paradigm\temp","2210","119838","504128","444","504128","670","119837","504064","512019","NA","509943","626","505168","504097","503839","NA","506314","133059","504087","448","experiment-visual-word-paradigm","511996.0","read","1595","wolf.mp4","1920"
"01_apple.ogg","white","legacy","True","C:\Users\yarbus\Desktop\Team Cat\visual-word-paradigm\temp","legacy","legacy","motion","C:\Users\yarbus\Desktop\Team Cat\visual-word-paradigm\config.yml","0","0","41","0","41","0","0","41","41","0","41","0","41","41","41","0","41","0","41","0","40.18284846647883","50","Wed Jul 10 15:33:32 2024","20","The main experiment item","False","3835.9999656677246","133057","pygame-experiment-visual-world-paradigm.osexp","C:\Users\yarbus\Desktop\Team Cat\visual-word-paradigm","black","0","0","medium-open","1000","False","mono","False","32","no","black","no","yes","1080","1","Look at the screen and listen carefully. press any key to continue","True","mono","black","32","None","None","c","legacy","-1","chicken","41","41","breakfast","C:/Users/yarbus/Desktop/Team Cat/visual-word-paradigm/trials/subject-6.csv","2000","legacy","Melodramatic Milgram","4.0.13","False","mono","black","32","None","380","Pause. Look at the fixation dot in order to continue.","30000","-480","480","-480","480","270","270","-270","-270","1000","0","2","legacy"," At breakfast, I usually eat an apple.","500","1024","2","3.3359999656677246","48000","-16","C:\Users\yarbus\AppData\Local\Temp\tmprtf957ee.opensesame_pool\01_apple.ogg","pool","wolf","apple","archery","pool","wolf","apple","archery","experiment","apple","6","even","2696","TL","518414.0","C:\Users\yarbus\Desktop\Team Cat\visual-word-paradigm\temp","2210","119838","512284","444","512284","670","119837","512211","520414","NA","518366","626","513330","512249","512032","NA","514463","133059","512234","448","experiment-visual-word-paradigm","520414.0","eat","1657","wolf.mp4","1920"
"50_cactus.ogg","white","legacy","True","C:\Users\yarbus\Desktop\Team Cat\visual-word-paradigm\temp","legacy","legacy","static","C:\Users\yarbus\Desktop\Team Cat\visual-word-paradigm\config.yml","0","0","42","0","42","0","0","42","42","0","42","0","42","42","42","0","42","0","42","0","44.91571987623036","50","Wed Jul 10 15:33:32 2024","20","The main experiment item","False","5179.999828338623","133057","pygame-experiment-visual-world-paradigm.osexp","C:\Users\yarbus\Desktop\Team Cat\visual-word-paradigm","black","0","0","medium-open","1000","False","mono","False","32","no","black","no","yes","1080","50","Look at the screen and listen carefully. press any key to continue","True","mono","black","32","None","None","c","legacy","-1","chicken","42","42","botanical garden","C:/Users/yarbus/Desktop/Team Cat/visual-word-paradigm/trials/subject-6.csv","2000","legacy","Melodramatic Milgram","4.0.13","False","mono","black","32","None","380","Pause. Look at the fixation dot in order to continue.","30000","-480","480","-480","480","270","270","-270","-270","1000","0","2","legacy","In the botanical garden, the girl got stung by a cactus.","500","1024","2","4.679999828338623","48000","-16","C:\Users\yarbus\AppData\Local\Temp\tmprtf957ee.opensesame_pool\50_cactus.ogg","card","cactus","bear","pacifier","card","cactus","bear","pacifier","experiment","cactus","6","even","3287","BR","528031.0","C:\Users\yarbus\Desktop\Team Cat\visual-word-paradigm\temp","2210","119838","520652","444","520652","670","119837","520576","530633","NA","527984","626","521698","520617","520415","NA","522746","133059","520602","448","experiment-visual-word-paradigm","530031.0","stung","2326","wolf.mp4","1920"
"15_keyboard.ogg","white","legacy","True","C:\Users\yarbus\Desktop\Team Cat\visual-word-paradigm\temp","legacy","legacy","motion","C:\Users\yarbus\Desktop\Team Cat\visual-word-paradigm\config.yml","0","0","43","0","43","0","0","43","43","0","43","0","43","43","43","0","43","0","43","0","49.6163557694436","50","Wed Jul 10 15:33:32 2024","20","The main experiment item","False","4196.000099182129","133057","pygame-experiment-visual-world-paradigm.osexp","C:\Users\yarbus\Desktop\Team Cat\visual-word-paradigm","black","0","0","medium-open","1000","False","mono","False","32","no","black","no","yes","1080","15","Look at the screen and listen carefully. press any key to continue","True","mono","black","32","None","None","c","legacy","-1","chicken","43","43","desk","C:/Users/yarbus/Desktop/Team Cat/visual-word-paradigm/trials/subject-6.csv","2000","legacy","Melodramatic Milgram","4.0.13","False","mono","black","32","None","380","Pause. Look at the fixation dot in order to continue.","30000","-480","480","-480","480","270","270","-270","-270","1000","0","2","legacy","At her desk, the girl typed on the keyboard.","500","1024","2","3.696000099182129","48000","-16","C:\Users\yarbus\AppData\Local\Temp\tmprtf957ee.opensesame_pool\15_keyboard.ogg","paintcan","sofa","keyboard","bowl","paintcan","sofa","keyboard","bowl","experiment","keyboard","6","even","2111","TL","537544.0","C:\Users\yarbus\Desktop\Team Cat\visual-word-paradigm\temp","2210","119838","530972","444","530972","670","119837","530897","540224","NA","537499","626","532024","530931","530646","NA","533173","133059","530921","448","experiment-visual-word-paradigm","539544.0","typed","1500","wolf.mp4","1920"
"45_basketball.ogg","white","legacy","True","C:\Users\yarbus\Desktop\Team Cat\visual-word-paradigm\temp","legacy","legacy","static","C:\Users\yarbus\Desktop\Team Cat\visual-word-paradigm\config.yml","0","0","44","0","44","0","0","44","44","0","44","0","44","44","44","0","44","0","44","0","31.831453244864573","50","Wed Jul 10 15:33:32 2024","20","The main experiment item","False","4196.000099182129","133057","pygame-experiment-visual-world-paradigm.osexp","C:\Users\yarbus\Desktop\Team Cat\visual-word-paradigm","black","0","0","medium-open","1000","False","mono","False","32","no","black","no","yes","1080","45","Look at the screen and listen carefully. press any key to continue","True","mono","black","32","None","None","c","legacy","-1","chicken","44","44","sports hall","C:/Users/yarbus/Desktop/Team Cat/visual-word-paradigm/trials/subject-6.csv","2000","legacy","Melodramatic Milgram","4.0.13","False","mono","black","32","None","380","Pause. Look at the fixation dot in order to continue.","30000","-480","480","-480","480","270","270","-270","-270","1000","0","2","legacy","At the sports hall, the girl played basketball.","500","1024","2","3.696000099182129","48000","-16","C:\Users\yarbus\AppData\Local\Temp\tmprtf957ee.opensesame_pool\45_basketball.ogg","basketball","mitten","clothes","boxtruck","basketball","mitten","clothes","boxtruck","experiment","basketball","6","even","2613","BL","546976.0","C:\Users\yarbus\Desktop\Team Cat\visual-word-paradigm\temp","2210","119838","540556","444","540556","670","119837","540484","549000","NA","546927","626","541605","540518","540236","NA","542679","133059","540508","448","experiment-visual-word-paradigm","548976.0","played","1819","wolf.mp4","1920"
"41_drinks.ogg","white","legacy","True","C:\Users\yarbus\Desktop\Team Cat\visual-word-paradigm\temp","legacy","legacy","static","C:\Users\yarbus\Desktop\Team Cat\visual-word-paradigm\config.yml","0","0","45","0","45","0","0","45","45","0","45","0","45","45","45","0","45","0","45","0","16.435142567072536","50","Wed Jul 10 15:33:32 2024","20","The main experiment item","False","4075.999975204468","133057","pygame-experiment-visual-world-paradigm.osexp","C:\Users\yarbus\Desktop\Team Cat\visual-word-paradigm","black","0","0","medium-open","1000","False","mono","False","32","no","black","no","yes","1080","41","Look at the screen and listen carefully. press any key to continue","True","mono","black","32","None","None","c","legacy","-1","chicken","45","45","party","C:/Users/yarbus/Desktop/Team Cat/visual-word-paradigm/trials/subject-6.csv","2000","legacy","Melodramatic Milgram","4.0.13","False","mono","black","32","None","380","Pause. Look at the fixation dot in order to continue.","30000","-480","480","-480","480","270","270","-270","-270","1000","0","2","legacy","At the party, the girl served drinks to the guests.","500","1024","2","3.5759999752044678","48000","-16","C:\Users\yarbus\AppData\Local\Temp\tmprtf957ee.opensesame_pool\41_drinks.ogg","drinks","nailclipper","cats","shoppingcart","drinks","nailclipper","cats","shoppingcart","experiment","drinks","6","even","2115","BL","555539.0","C:\Users\yarbus\Desktop\Team Cat\visual-word-paradigm\temp","2210","119838","549260","444","549260","670","119837","549181","557540","NA","555499","626","550301","549221","549013","NA","551359","133059","549207","448","experiment-visual-word-paradigm","557540.0","served","1333","wolf.mp4","1920"
"55_frisbee.ogg","white","legacy","True","C:\Users\yarbus\Desktop\Team Cat\visual-word-paradigm\temp","legacy","legacy","static","C:\Users\yarbus\Desktop\Team Cat\visual-word-paradigm\config.yml","0","0","46","0","46","0","0","46","46","0","46","0","46","46","46","0","46","0","46","0","47.36898866051502","50","Wed Jul 10 15:33:32 2024","20","The main experiment item","False","3716.0000801086426","133057","pygame-experiment-visual-world-paradigm.osexp","C:\Users\yarbus\Desktop\Team Cat\visual-word-paradigm","black","0","0","medium-open","1000","False","mono","False","32","no","black","no","yes","1080","55","Look at the screen and listen carefully. press any key to continue","True","mono","black","32","None","None","c","legacy","-1","chicken","46","46","grass","C:/Users/yarbus/Desktop/Team Cat/visual-word-paradigm/trials/subject-6.csv","2000","legacy","Melodramatic Milgram","4.0.13","False","mono","black","32","None","380","Pause. Look at the fixation dot in order to continue.","30000","-480","480","-480","480","270","270","-270","-270","1000","0","2","legacy","On the grass, the girl played frisbee.","500","1024","2","3.2160000801086426","48000","-16","C:\Users\yarbus\AppData\Local\Temp\tmprtf957ee.opensesame_pool\55_frisbee.ogg","car","frisbee","math","rollercoaster","car","frisbee","math","rollercoaster","experiment","frisbee","6","even","2036","BR","563704.0","C:\Users\yarbus\Desktop\Team Cat\visual-word-paradigm\temp","2210","119838","557781","444","557781","670","119837","557718","565751","NA","563652","626","558830","557750","557553","NA","559880","133059","557741","448","experiment-visual-word-paradigm","565704.0","played","1742","wolf.mp4","1920"
"06_croissant.ogg","white","legacy","True","C:\Users\yarbus\Desktop\Team Cat\visual-word-paradigm\temp","legacy","legacy","motion","C:\Users\yarbus\Desktop\Team Cat\visual-word-paradigm\config.yml","0","0","47","0","47","0","0","47","47","0","47","0","47","47","47","0","47","0","47","0","42.65504560260128","50","Wed Jul 10 15:33:32 2024","20","The main experiment item","False","4075.999975204468","133057","pygame-experiment-visual-world-paradigm.osexp","C:\Users\yarbus\Desktop\Team Cat\visual-word-paradigm","black","0","0","medium-open","1000","False","mono","False","32","no","black","no","yes","1080","6","Look at the screen and listen carefully. press any key to continue","True","mono","black","32","None","None","c","legacy","-1","chicken","47","47","breakfast","C:/Users/yarbus/Desktop/Team Cat/visual-word-paradigm/trials/subject-6.csv","2000","legacy","Melodramatic Milgram","4.0.13","False","mono","black","32","None","380","Pause. Look at the fixation dot in order to continue.","30000","-480","480","-480","480","270","270","-270","-270","1000","0","2","legacy","At breakfast, the girl ate a croissant. ","500","1024","2","3.5759999752044678","48000","-16","C:\Users\yarbus\AppData\Local\Temp\tmprtf957ee.opensesame_pool\06_croissant.ogg","dance","makeup","croissant","duck","dance","makeup","croissant","duck","experiment","croissant","6","even","2576","TL","572314.0","C:\Users\yarbus\Desktop\Team Cat\visual-word-paradigm\temp","2210","119838","565998","444","565998","670","119837","565927","574582","NA","572265","626","567043","565966","565753","NA","568105","133059","565950","448","experiment-visual-word-paradigm","574314.0","ate","1876","wolf.mp4","1920"
"16_mouse.ogg","white","legacy","True","C:\Users\yarbus\Desktop\Team Cat\visual-word-paradigm\temp","legacy","legacy","motion","C:\Users\yarbus\Desktop\Team Cat\visual-word-paradigm\config.yml","0","0","48","0","48","0","0","48","48","0","48","0","48","48","48","0","48","0","48","0","43.32847816759783","50","Wed Jul 10 15:33:32 2024","20","The main experiment item","False","3740.000009536743","133057","pygame-experiment-visual-world-paradigm.osexp","C:\Users\yarbus\Desktop\Team Cat\visual-word-paradigm","black","0","0","medium-open","1000","False","mono","False","32","no","black","no","yes","1080","16","Look at the screen and listen carefully. press any key to continue","True","mono","black","32","None","None","c","legacy","-1","chicken","48","48","desk","C:/Users/yarbus/Desktop/Team Cat/visual-word-paradigm/trials/subject-6.csv","2000","legacy","Melodramatic Milgram","4.0.13","False","mono","black","32","None","380","Pause. Look at the fixation dot in order to continue.","30000","-480","480","-480","480","270","270","-270","-270","1000","0","2","legacy","At her desk, the girl clicked the mouse. ","500","1024","2","3.240000009536743","48000","-16","C:\Users\yarbus\AppData\Local\Temp\tmprtf957ee.opensesame_pool\16_mouse.ogg","moon","button","mouse","ceilingfan","moon","button","mouse","ceilingfan","experiment","mouse","6","even","2425","TL","580885.0","C:\Users\yarbus\Desktop\Team Cat\visual-word-paradigm\temp","2210","119838","574858","444","574858","670","119837","574800","582885","NA","580838","626","575894","574829","574595","NA","576999","133059","574828","448","experiment-visual-word-paradigm","582885.0","clicked","1427","wolf.mp4","1920"
"46_badminton.ogg","white","legacy","True","C:\Users\yarbus\Desktop\Team Cat\visual-word-paradigm\temp","legacy","legacy","static","C:\Users\yarbus\Desktop\Team Cat\visual-word-paradigm\config.yml","0","0","49","0","49","0","0","49","49","0","49","0","49","49","49","0","49","0","49","0","27.041065836982042","50","Wed Jul 10 15:33:32 2024","20","The main experiment item","False","3931.999921798706","133057","pygame-experiment-visual-world-paradigm.osexp","C:\Users\yarbus\Desktop\Team Cat\visual-word-paradigm","black","0","0","medium-open","1000","False","mono","False","32","no","black","no","yes","1080","46","Look at the screen and listen carefully. press any key to continue","True","mono","black","32","None","None","c","legacy","-1","chicken","49","49","stadium","C:/Users/yarbus/Desktop/Team Cat/visual-word-paradigm/trials/subject-6.csv","2000","legacy","Melodramatic Milgram","4.0.13","False","mono","black","32","None","380","Pause. Look at the fixation dot in order to continue.","30000","-480","480","-480","480","270","270","-270","-270","1000","0","2","legacy","At the stadium, the girl played badminton.","500","1024","2","3.431999921798706","48000","-16","C:\Users\yarbus\AppData\Local\Temp\tmprtf957ee.opensesame_pool\46_badminton.ogg","badminton","cactus","ceilingfan","dishes","badminton","cactus","ceilingfan","dishes","experiment","badminton","6","even","2416","BL","589276.0","C:\Users\yarbus\Desktop\Team Cat\visual-word-paradigm\temp","2210","119838","583132","444","583132","670","119837","583070","591385","NA","589237","626","584178","583100","582897","NA","585240","133059","583093","448","experiment-visual-word-paradigm","591276.0","played","1705","wolf.mp4","1920"
"11_chicken.ogg","white","legacy","True","C:\Users\yarbus\Desktop\Team Cat\visual-word-paradigm\temp","legacy","legacy","motion","C:\Users\yarbus\Desktop\Team Cat\visual-word-paradigm\config.yml","0","0","50","0","50","0","0","50","50","0","50","0","50","50","50","0","50","0","50","0","10.881522716973082","50","Wed Jul 10 15:33:32 2024","20","The main experiment item","False","3548.0000972747803","133057","pygame-experiment-visual-world-paradigm.osexp","C:\Users\yarbus\Desktop\Team Cat\visual-word-paradigm","black","0","0","medium-open","1000","False","mono","False","32","no","black","no","yes","1080"," ","Look at the screen and listen carefully. press any key to continue","True","mono","black","32","None","None","c","legacy","-1","chicken","50","50","farm","C:/Users/yarbus/Desktop/Team Cat/visual-word-paradigm/trials/subject-6.csv","2000","legacy","Melodramatic Milgram","4.0.13","False","mono","black","32","None","380","Pause. Look at the fixation dot in order to continue.","30000","-480","480","-480","480","270","270","-270","-270","1000","0","2","legacy","At the farm, the girl fed the chicken. ","500","1024","2","3.0480000972747803","48000","-16","C:\Users\yarbus\AppData\Local\Temp\tmprtf957ee.opensesame_pool\11_chicken.ogg","shoppingcart","battery","chicken","basketball","shoppingcart","battery","chicken","basketball","experiment","chicken","6","even","2193","TL","597442.0","C:\Users\yarbus\Desktop\Team Cat\visual-word-paradigm\temp","2210","119838","591659","444","591659","670","119837","591597","599442","NA","597403","626","592708","591630","591397","NA","593794","133059","591620","448","experiment-visual-word-paradigm","599442.0","fed","1607","wolf.mp4","1920"
"59_documents.ogg","white","legacy","True","C:\Users\yarbus\Desktop\Team Cat\visual-word-paradigm\temp","legacy","legacy","static","C:\Users\yarbus\Desktop\Team Cat\visual-word-paradigm\config.yml","0","0","51","0","51","0","0","51","51","0","51","0","51","51","51","0","51","0","51","0","47.44497155737375","50","Wed Jul 10 15:33:32 2024","20","The main experiment item","False","4243.99995803833","133057","pygame-experiment-visual-world-paradigm.osexp","C:\Users\yarbus\Desktop\Team Cat\visual-word-paradigm","black","0","0","medium-open","1000","False","mono","False","32","no","black","no","yes","1080","59","Look at the screen and listen carefully. press any key to continue","True","mono","black","32","None","None","c","legacy","-1","chicken","51","51","office","C:/Users/yarbus/Desktop/Team Cat/visual-word-paradigm/trials/subject-6.csv","2000","legacy","Melodramatic Milgram","4.0.13","False","mono","black","32","None","380","Pause. Look at the fixation dot in order to continue.","30000","-480","480","-480","480","270","270","-270","-270","1000","0","2","legacy","In the office, the girl printed documents. ","500","1024","2","3.74399995803833","48000","-16","C:\Users\yarbus\AppData\Local\Temp\tmprtf957ee.opensesame_pool\59_documents.ogg","brainmodel","documents","weights","fishing","brainmodel","documents","weights","fishing","experiment","documents","6","even","2487","BR","606127.0","C:\Users\yarbus\Desktop\Team Cat\visual-word-paradigm\temp","2210","119838","599696","444","599696","670","119837","599627","609729","NA","606081","626","600725","599666","599455","NA","601775","133059","599656","448","experiment-visual-word-paradigm","608127.0","printed","1575","wolf.mp4","1920"
"32_flowers.ogg","white","legacy","True","C:\Users\yarbus\Desktop\Team Cat\visual-word-paradigm\temp","legacy","legacy","motion","C:\Users\yarbus\Desktop\Team Cat\visual-word-paradigm\config.yml","0","0","52","0","52","0","0","52","52","0","52","0","52","52","52","0","52","0","52","0","27.534163381515715","50","Wed Jul 10 15:33:32 2024","20","The main experiment item","False","3691.999912261963","133057","pygame-experiment-visual-world-paradigm.osexp","C:\Users\yarbus\Desktop\Team Cat\visual-word-paradigm","black","0","0","medium-open","1000","False","mono","False","32","no","black","no","yes","1080","32","Look at the screen and listen carefully. press any key to continue","True","mono","black","32","None","None","c","legacy","-1","chicken","52","52","garden","C:/Users/yarbus/Desktop/Team Cat/visual-word-paradigm/trials/subject-6.csv","2000","legacy","Melodramatic Milgram","4.0.13","False","mono","black","32","None","380","Pause. Look at the fixation dot in order to continue.","30000","-480","480","-480","480","270","270","-270","-270","1000","0","2","legacy","In the garden, the girl planted flowers.","500","1024","2","3.191999912261963","48000","-16","C:\Users\yarbus\AppData\Local\Temp\tmprtf957ee.opensesame_pool\32_flowers.ogg","nailclipper","beer","baggage","flowers","nailclipper","beer","baggage","flowers","experiment","flowers","6","even","2155","TR","616178.0","C:\Users\yarbus\Desktop\Team Cat\visual-word-paradigm\temp","2210","119838","610134","444","610134","670","119837","610056","618178","NA","616126","626","611186","610087","609742","NA","612317","133059","610079","448","experiment-visual-word-paradigm","618178.0","planted","1771","wolf.mp4","1920"
"17_sofa.ogg","white","legacy","True","C:\Users\yarbus\Desktop\Team Cat\visual-word-paradigm\temp","legacy","legacy","motion","C:\Users\yarbus\Desktop\Team Cat\visual-word-paradigm\config.yml","0","0","53","0","53","0","0","53","53","0","53","0","53","53","53","0","53","0","53","0","48.92785491803212","50","Wed Jul 10 15:33:32 2024","20","The main experiment item","False","3956.0000896453857","133057","pygame-experiment-visual-world-paradigm.osexp","C:\Users\yarbus\Desktop\Team Cat\visual-word-paradigm","black","0","0","medium-open","1000","False","mono","False","32","no","black","no","yes","1080","17","Look at the screen and listen carefully. press any key to continue","True","mono","black","32","None","None","c","legacy","-1","chicken","53","53","living room","C:/Users/yarbus/Desktop/Team Cat/visual-word-paradigm/trials/subject-6.csv","2000","legacy","Melodramatic Milgram","4.0.13","False","mono","black","32","None","380","Pause. Look at the fixation dot in order to continue.","30000","-480","480","-480","480","270","270","-270","-270","1000","0","2","legacy","In the living room, the girl sat on a sofa. ","500","1024","2","3.4560000896453857","48000","-16","C:\Users\yarbus\AppData\Local\Temp\tmprtf957ee.opensesame_pool\17_sofa.ogg","kite","egg","pencilsharpener","sofa","kite","egg","pencilsharpener","sofa","experiment","sofa","6","even","2636","TR","624713.0","C:\Users\yarbus\Desktop\Team Cat\visual-word-paradigm\temp","2210","119838","618420","444","618420","670","119837","618359","627181","NA","624660","626","619458","618391","618191","NA","620552","133059","618382","448","experiment-visual-word-paradigm","626713.0","sat","1619","wolf.mp4","1920"
"38_plants.ogg","white","legacy","True","C:\Users\yarbus\Desktop\Team Cat\visual-word-paradigm\temp","legacy","legacy","static","C:\Users\yarbus\Desktop\Team Cat\visual-word-paradigm\config.yml","0","0","54","0","54","0","0","54","54","0","54","0","54","54","54","0","54","0","54","0","46.82776507158976","50","Wed Jul 10 15:33:32 2024","20","The main experiment item","False","4099.999904632568","133057","pygame-experiment-visual-world-paradigm.osexp","C:\Users\yarbus\Desktop\Team Cat\visual-word-paradigm","black","0","0","medium-open","1000","False","mono","False","32","no","black","no","yes","1080","38","Look at the screen and listen carefully. press any key to continue","True","mono","black","32","None","None","c","legacy","-1","chicken","54","54","backyard","C:/Users/yarbus/Desktop/Team Cat/visual-word-paradigm/trials/subject-6.csv","2000","legacy","Melodramatic Milgram","4.0.13","False","mono","black","32","None","380","Pause. Look at the fixation dot in order to continue.","30000","-480","480","-480","480","270","270","-270","-270","1000","0","2","legacy","In the backyard, the girl watered the plants.","500","1024","2","3.5999999046325684","48000","-16","C:\Users\yarbus\AppData\Local\Temp\tmprtf957ee.opensesame_pool\38_plants.ogg","plants","paintcan","brick","calendar","plants","paintcan","brick","calendar","experiment","plants","6","even","2387","BL","633752.0","C:\Users\yarbus\Desktop\Team Cat\visual-word-paradigm\temp","2210","119838","627469","444","627469","670","119837","627410","636216","NA","633700","626","628499","627445","627193","NA","629548","133059","627437","448","experiment-visual-word-paradigm","635752.0","watered","1510","wolf.mp4","1920"
"58_fish.ogg","white","legacy","True","C:\Users\yarbus\Desktop\Team Cat\visual-word-paradigm\temp","legacy","legacy","static","C:\Users\yarbus\Desktop\Team Cat\visual-word-paradigm\config.yml","0","0","55","0","55","0","0","55","55","0","55","0","55","55","55","0","55","0","55","0","48.934544926871425","50","Wed Jul 10 15:33:32 2024","20","The main experiment item","False","3691.999912261963","133057","pygame-experiment-visual-world-paradigm.osexp","C:\Users\yarbus\Desktop\Team Cat\visual-word-paradigm","black","0","0","medium-open","1000","False","mono","False","32","no","black","no","yes","1080","58","Look at the screen and listen carefully. press any key to continue","True","mono","black","32","None","None","c","legacy","-1","chicken","55","55","lake","C:/Users/yarbus/Desktop/Team Cat/visual-word-paradigm/trials/subject-6.csv","2000","legacy","Melodramatic Milgram","4.0.13","False","mono","black","32","None","380","Pause. Look at the fixation dot in order to continue.","30000","-480","480","-480","480","270","270","-270","-270","1000","0","2","legacy","At the lake, the girl caught a big fish.","500","1024","2","3.191999912261963","48000","-16","C:\Users\yarbus\AppData\Local\Temp\tmprtf957ee.opensesame_pool\58_fish.ogg","blood","fish","boxtruck","mouse","blood","fish","boxtruck","mouse","experiment","fish","6","even","2396","BR","642416.0","C:\Users\yarbus\Desktop\Team Cat\visual-word-paradigm\temp","2210","119838","636496","444","636496","670","119837","636434","644460","NA","642363","626","637539","636463","636218","NA","638610","133059","636457","448","experiment-visual-word-paradigm","644416.0","caught","1467","wolf.mp4","1920"
"63_meditation.ogg","white","legacy","True","C:\Users\yarbus\Desktop\Team Cat\visual-word-paradigm\temp","legacy","legacy","static","C:\Users\yarbus\Desktop\Team Cat\visual-word-paradigm\config.yml","0","0","56","0","56","0","0","56","56","0","56","0","56","56","56","0","56","0","56","0","35.07100433121357","50","Wed Jul 10 15:33:32 2024","20","The main experiment item","False","4748.000144958496","133057","pygame-experiment-visual-world-paradigm.osexp","C:\Users\yarbus\Desktop\Team Cat\visual-word-paradigm","black","0","0","medium-open","1000","False","mono","False","32","no","black","no","yes","1080","63","Look at the screen and listen carefully. press any key to continue","True","mono","black","32","None","None","c","legacy","-1","chicken","56","56","yoga class","C:/Users/yarbus/Desktop/Team Cat/visual-word-paradigm/trials/subject-6.csv","2000","legacy","Melodramatic Milgram","4.0.13","False","mono","black","32","None","380","Pause. Look at the fixation dot in order to continue.","30000","-480","480","-480","480","270","270","-270","-270","1000","0","2","legacy","During yoga class, the girl practised meditation. ","500","1024","2","4.248000144958496","48000","-16","C:\Users\yarbus\AppData\Local\Temp\tmprtf957ee.opensesame_pool\63_meditation.ogg","barbecue","meditation","mitten","bookshelf","barbecue","meditation","mitten","bookshelf","experiment","meditation","6","even","3105","BR","651805.0","C:\Users\yarbus\Desktop\Team Cat\visual-word-paradigm\temp","2210","119838","644852","444","644852","670","119837","644783","654004","NA","651755","626","645885","644806","644471","NA","646950","133059","644805","448","experiment-visual-word-paradigm","653805.0","practised","2119","wolf.mp4","1920"
