"audio","background","canvas_backend","central_fixation","cfg_temp_dir","clock_backend","color_backend","condition","config_path","count_calibration_pygaze_init","count_check_group_selection","count_define_logging","count_experiment","count_fixation","count_instruction_screen","count_latin_square_group_select","count_logsleep","count_new_logger","count_outro_screen","count_pause","count_preprocess_videos","count_preview","count_pygaze_start_recording","count_pygaze_stop_recording","count_readme","count_sentence","count_trial_loop","count_trial_sequence","count_utils","d","d_to_continue","datetime","delay_logsleep","description","disable_garbage_collection","duration","end_time","experiment_file","experiment_path","fixdot_color","fixdot_posx","fixdot_posy","fixdot_style","fixtime","font_bold","font_family","font_italic","font_size","font_underline","foreground","form_clicks","fullscreen","height","index","inst","inst_cnt","inst_font","inst_font_col","inst_font_size","inst_posx","inst_posy","key","keyboard_backend","latin_group","latin_group_name","live_row","live_row_trial_loop","location_cue","logfile","minpause","mouse_backend","opensesame_codename","opensesame_version","pause_cntr","pause_font","pause_font_col","pause_font_size","pause_posx","pause_posy","pause_text","pausetimeout","posx_sstimBL","posx_sstimBR","posx_sstimTL","posx_sstimTR","posy_sstimBL","posy_sstimBR","posy_sstimTL","posy_sstimTR","prevtime","repeat_cycle","round_decimals","sampler_backend","sentence","sentenceoffset","sound_buf_size","sound_channels","sound_duration_ms","sound_freq","sound_sample_size","src","sstimBL","sstimBR","sstimTL","sstimTR","sstim_bl","sstim_br","sstim_tl","sstim_tr","start","stimulus_name","subject_nr","subject_parity","target_cue_timing","target_pos","tcur","temp_dir","time_calibration_pygaze_init","time_check_group_selection","time_define_logging","time_experiment","time_fixation","time_instruction_screen","time_latin_square_group_select","time_logsleep","time_new_logger","time_outro_screen","time_pause","time_preprocess_videos","time_preview","time_pygaze_start_recording","time_pygaze_stop_recording","time_readme","time_sentence","time_trial_loop","time_trial_sequence","time_utils","title","tmin","verb_cue","verb_cue_timing","video_file","width"
"62_mathproblems.ogg","white","legacy","True","C:\Users\yarbus\Desktop\Team Cat\visual-word-paradigm\temp","legacy","legacy","static","C:\Users\yarbus\Desktop\Team Cat\visual-word-paradigm\config.yml","0","0","0","0","0","0","0","0","0","0","0","0","0","0","0","0","0","0","0","0","49.09808762059885","50","Fri Aug  9 14:55:25 2024","20","The main experiment item","False","4196.000099182129","60866","pygame-experiment-visual-world-paradigm.osexp","C:\Users\yarbus\Desktop\Team Cat\visual-word-paradigm","black","0","0","medium-open","1000","False","mono","False","32","no","black","no","yes","1080","62","Look at the screen and listen carefully. press any key to continue","True","mono","black","32","None","None","c","legacy","-1","chicken","0","0","classroom","C:/Users/yarbus/Desktop/Team Cat/visual-word-paradigm/trials/subject-8.csv","2000","legacy","Melodramatic Milgram","4.0.13","False","mono","black","32","None","380","Pause. Look at the fixation dot in order to continue.","30000","-480","480","-480","480","270","270","-270","-270","1000","0","2","legacy","In the classroom, the girl solved math problems.","500","1024","2","3.696000099182129","48000","-16","C:\Users\yarbus\AppData\Local\Temp\tmpagpyebks.opensesame_pool\62_mathproblems.ogg","kite","math","bear","cookie","kite","math","bear","cookie","experiment","math","8","even","2397","BR","67417.0","C:\Users\yarbus\Desktop\Team Cat\visual-word-paradigm\temp","13459","56097","61054","520","61054","858","56097","NA","71635","NA","67378","808","62080","60883","NA","NA","63145","60867","60872","581","experiment-visual-word-paradigm","69417.0","solved","1801","wolf.mp4","1920"
"46_badminton.ogg","white","legacy","True","C:\Users\yarbus\Desktop\Team Cat\visual-word-paradigm\temp","legacy","legacy","static","C:\Users\yarbus\Desktop\Team Cat\visual-word-paradigm\config.yml","0","0","1","0","1","0","0","1","1","0","1","0","1","1","1","0","1","0","1","0","19.23783326261048","50","Fri Aug  9 14:55:25 2024","20","The main experiment item","False","3931.999921798706","60866","pygame-experiment-visual-world-paradigm.osexp","C:\Users\yarbus\Desktop\Team Cat\visual-word-paradigm","black","0","0","medium-open","1000","False","mono","False","32","no","black","no","yes","1080","46","Look at the screen and listen carefully. press any key to continue","True","mono","black","32","None","None","c","legacy","-1","chicken","1","1","stadium","C:/Users/yarbus/Desktop/Team Cat/visual-word-paradigm/trials/subject-8.csv","2000","legacy","Melodramatic Milgram","4.0.13","False","mono","black","32","None","380","Pause. Look at the fixation dot in order to continue.","30000","-480","480","-480","480","270","270","-270","-270","1000","0","2","legacy","At the stadium, the girl played badminton.","500","1024","2","3.431999921798706","48000","-16","C:\Users\yarbus\AppData\Local\Temp\tmpagpyebks.opensesame_pool\46_badminton.ogg","badminton","cactus","ceilingfan","dishes","badminton","cactus","ceilingfan","dishes","experiment","badminton","8","even","2416","BL","82117.0","C:\Users\yarbus\Desktop\Team Cat\visual-word-paradigm\temp","13459","56097","76040","520","76040","858","56097","72008","85801","NA","82089","808","77063","72031","71651","NA","78116","60867","72031","581","experiment-visual-word-paradigm","84117.0","played","1705","wolf.mp4","1920"
"07_clothes.ogg","white","legacy","True","C:\Users\yarbus\Desktop\Team Cat\visual-word-paradigm\temp","legacy","legacy","motion","C:\Users\yarbus\Desktop\Team Cat\visual-word-paradigm\config.yml","0","0","2","0","2","0","0","2","2","0","2","0","2","2","2","0","2","0","2","0","21.72064242143868","50","Fri Aug  9 14:55:25 2024","20","The main experiment item","False","4388.000011444092","60866","pygame-experiment-visual-world-paradigm.osexp","C:\Users\yarbus\Desktop\Team Cat\visual-word-paradigm","black","0","0","medium-open","1000","False","mono","False","32","no","black","no","yes","1080","7","Look at the screen and listen carefully. press any key to continue","True","mono","black","32","None","None","c","legacy","-1","chicken","2","2","shopping mall","C:/Users/yarbus/Desktop/Team Cat/visual-word-paradigm/trials/subject-8.csv","2000","legacy","Melodramatic Milgram","4.0.13","False","mono","black","32","None","380","Pause. Look at the fixation dot in order to continue.","30000","-480","480","-480","480","270","270","-270","-270","1000","0","2","legacy","In the shopping mall, the girl shopped for clothes.","500","1024","2","3.888000011444092","48000","-16","C:\Users\yarbus\AppData\Local\Temp\tmpagpyebks.opensesame_pool\07_clothes.ogg","CD","flowers","clothes","cellphone","CD","flowers","clothes","cellphone","experiment","clothes","8","even","2579","TL","92768.0","C:\Users\yarbus\Desktop\Team Cat\visual-word-paradigm\temp","13459","56097","86141","520","86141","858","56097","86072","96580","NA","92739","808","87156","86106","85814","NA","88241","60867","86095","581","experiment-visual-word-paradigm","94768.0","shopped","1703","wolf.mp4","1920"
"56_marshmallows.ogg","white","legacy","True","C:\Users\yarbus\Desktop\Team Cat\visual-word-paradigm\temp","legacy","legacy","static","C:\Users\yarbus\Desktop\Team Cat\visual-word-paradigm\config.yml","0","0","3","0","3","0","0","3","3","0","3","0","3","3","3","0","3","0","3","0","48.793717525107716","50","Fri Aug  9 14:55:25 2024","20","The main experiment item","False","4507.999897003174","60866","pygame-experiment-visual-world-paradigm.osexp","C:\Users\yarbus\Desktop\Team Cat\visual-word-paradigm","black","0","0","medium-open","1000","False","mono","False","32","no","black","no","yes","1080","56","Look at the screen and listen carefully. press any key to continue","True","mono","black","32","None","None","c","legacy","-1","chicken","3","3","campfire","C:/Users/yarbus/Desktop/Team Cat/visual-word-paradigm/trials/subject-8.csv","2000","legacy","Melodramatic Milgram","4.0.13","False","mono","black","32","None","380","Pause. Look at the fixation dot in order to continue.","30000","-480","480","-480","480","270","270","-270","-270","1000","0","2","legacy","At the campfire, the girl roasted marshmallows.","500","1024","2","4.007999897003174","48000","-16","C:\Users\yarbus\AppData\Local\Temp\tmpagpyebks.opensesame_pool\56_marshmallows.ogg","card","marshmallow","dice","mouse","card","marshmallow","dice","mouse","experiment","marshmallow","8","even","2892","BR","103672.0","C:\Users\yarbus\Desktop\Team Cat\visual-word-paradigm\temp","13459","56097","97009","520","97009","858","56097","96917","106836","NA","103643","808","98028","96958","96582","NA","99085","60867","96941","581","experiment-visual-word-paradigm","105672.0","roasted","2167","wolf.mp4","1920"
"23_novel.ogg","white","legacy","True","C:\Users\yarbus\Desktop\Team Cat\visual-word-paradigm\temp","legacy","legacy","motion","C:\Users\yarbus\Desktop\Team Cat\visual-word-paradigm\config.yml","0","0","4","0","4","0","0","4","4","0","4","0","4","4","4","0","4","0","4","0","39.92935567323869","50","Fri Aug  9 14:55:25 2024","20","The main experiment item","False","3523.9999294281006","60866","pygame-experiment-visual-world-paradigm.osexp","C:\Users\yarbus\Desktop\Team Cat\visual-word-paradigm","black","0","0","medium-open","1000","False","mono","False","32","no","black","no","yes","1080","23","Look at the screen and listen carefully. press any key to continue","True","mono","black","32","None","None","c","legacy","-1","chicken","4","4","library","C:/Users/yarbus/Desktop/Team Cat/visual-word-paradigm/trials/subject-8.csv","2000","legacy","Melodramatic Milgram","4.0.13","False","mono","black","32","None","380","Pause. Look at the fixation dot in order to continue.","30000","-480","480","-480","480","270","270","-270","-270","1000","0","2","legacy","In the library, the girl read a novel.","500","1024","2","3.0239999294281006","48000","-16","C:\Users\yarbus\AppData\Local\Temp\tmpagpyebks.opensesame_pool\23_novel.ogg","guitar","bracelet","marshmallow","novel","guitar","bracelet","marshmallow","novel","experiment","novel","8","even","2220","TR","112908.0","C:\Users\yarbus\Desktop\Team Cat\visual-word-paradigm\temp","13459","56097","107186","520","107186","858","56097","107112","116875","NA","112883","808","108213","107150","106847","NA","109274","60867","107135","581","experiment-visual-word-paradigm","114908.0","read","1595","wolf.mp4","1920"
"47_baggage.ogg","white","legacy","True","C:\Users\yarbus\Desktop\Team Cat\visual-word-paradigm\temp","legacy","legacy","static","C:\Users\yarbus\Desktop\Team Cat\visual-word-paradigm\config.yml","0","0","5","0","5","0","0","5","5","0","5","0","5","5","5","0","5","0","5","0","45.14982801296145","50","Fri Aug  9 14:55:25 2024","20","The main experiment item","False","4676.000118255615","60866","pygame-experiment-visual-world-paradigm.osexp","C:\Users\yarbus\Desktop\Team Cat\visual-word-paradigm","black","0","0","medium-open","1000","False","mono","False","32","no","black","no","yes","1080","47","Look at the screen and listen carefully. press any key to continue","True","mono","black","32","None","None","c","legacy","-1","chicken","5","5","airport","C:/Users/yarbus/Desktop/Team Cat/visual-word-paradigm/trials/subject-8.csv","2000","legacy","Melodramatic Milgram","4.0.13","False","mono","black","32","None","380","Pause. Look at the fixation dot in order to continue.","30000","-480","480","-480","480","270","270","-270","-270","1000","0","2","legacy","At the airport, the girl waited at the baggage claim.","500","1024","2","4.176000118255615","48000","-16","C:\Users\yarbus\AppData\Local\Temp\tmpagpyebks.opensesame_pool\47_baggage.ogg","baggage","rollercoaster","basketballhoop","croissant","baggage","rollercoaster","basketballhoop","croissant","experiment","baggage","8","even","2756","BL","124148.0","C:\Users\yarbus\Desktop\Team Cat\visual-word-paradigm\temp","13459","56097","117316","520","117316","858","56097","117216","126267","NA","124116","808","118340","117252","116877","NA","119401","60867","117239","581","experiment-visual-word-paradigm","126148.0","waited","1593","wolf.mp4","1920"
"21_kite.ogg","white","legacy","True","C:\Users\yarbus\Desktop\Team Cat\visual-word-paradigm\temp","legacy","legacy","motion","C:\Users\yarbus\Desktop\Team Cat\visual-word-paradigm\config.yml","0","0","6","0","6","0","0","6","6","0","6","0","6","6","6","0","6","0","6","0","28.764415641552656","50","Fri Aug  9 14:55:25 2024","20","The main experiment item","False","3884.000062942505","60866","pygame-experiment-visual-world-paradigm.osexp","C:\Users\yarbus\Desktop\Team Cat\visual-word-paradigm","black","0","0","medium-open","1000","False","mono","False","32","no","black","no","yes","1080","21","Look at the screen and listen carefully. press any key to continue","True","mono","black","32","None","None","c","legacy","-1","chicken","6","6","park","C:/Users/yarbus/Desktop/Team Cat/visual-word-paradigm/trials/subject-8.csv","2000","legacy","Melodramatic Milgram","4.0.13","False","mono","black","32","None","380","Pause. Look at the fixation dot in order to continue.","30000","-480","480","-480","480","270","270","-270","-270","1000","0","2","legacy","At the park, the girl flew a kite.","500","1024","2","3.384000062942505","48000","-16","C:\Users\yarbus\AppData\Local\Temp\tmpagpyebks.opensesame_pool\21_kite.ogg","cake","pool","blood","kite","cake","pool","blood","kite","experiment","kite","8","even","2440","TR","132594.0","C:\Users\yarbus\Desktop\Team Cat\visual-word-paradigm\temp","13459","56097","126494","520","126494","858","56097","126432","136979","NA","132560","808","127510","126470","126268","NA","128607","60867","126460","581","experiment-visual-word-paradigm","134594.0","flew","1354","wolf.mp4","1920"
"43_car.ogg","white","legacy","True","C:\Users\yarbus\Desktop\Team Cat\visual-word-paradigm\temp","legacy","legacy","static","C:\Users\yarbus\Desktop\Team Cat\visual-word-paradigm\config.yml","0","0","7","0","7","0","0","7","7","0","7","0","7","7","7","0","7","0","7","0","42.69660653869346","50","Fri Aug  9 14:55:25 2024","20","The main experiment item","False","3956.0000896453857","60866","pygame-experiment-visual-world-paradigm.osexp","C:\Users\yarbus\Desktop\Team Cat\visual-word-paradigm","black","0","0","medium-open","1000","False","mono","False","32","no","black","no","yes","1080","43","Look at the screen and listen carefully. press any key to continue","True","mono","black","32","None","None","c","legacy","-1","chicken","7","7","garage","C:/Users/yarbus/Desktop/Team Cat/visual-word-paradigm/trials/subject-8.csv","2000","legacy","Melodramatic Milgram","4.0.13","False","mono","black","32","None","380","Pause. Look at the fixation dot in order to continue.","30000","-480","480","-480","480","270","270","-270","-270","1000","0","2","legacy","In the garage, the girl washed her car.","500","1024","2","3.4560000896453857","48000","-16","C:\Users\yarbus\AppData\Local\Temp\tmpagpyebks.opensesame_pool\43_car.ogg","car","cd","brainmodel","bear","car","cd","brainmodel","bear","experiment","car","8","even","2227","BL","143532.0","C:\Users\yarbus\Desktop\Team Cat\visual-word-paradigm\temp","13459","56097","137437","520","137437","858","56097","137345","146855","NA","143502","808","138455","137383","136990","NA","139506","60867","137368","581","experiment-visual-word-paradigm","145532.0","washed","1398","wolf.mp4","1920"
"53_darts.ogg","white","legacy","True","C:\Users\yarbus\Desktop\Team Cat\visual-word-paradigm\temp","legacy","legacy","static","C:\Users\yarbus\Desktop\Team Cat\visual-word-paradigm\config.yml","0","0","8","0","8","0","0","8","8","0","8","0","8","8","8","0","8","0","8","0","46.12056653424809","50","Fri Aug  9 14:55:25 2024","20","The main experiment item","False","3907.9999923706055","60866","pygame-experiment-visual-world-paradigm.osexp","C:\Users\yarbus\Desktop\Team Cat\visual-word-paradigm","black","0","0","medium-open","1000","False","mono","False","32","no","black","no","yes","1080","53","Look at the screen and listen carefully. press any key to continue","True","mono","black","32","None","None","c","legacy","-1","chicken","8","8","bar","C:/Users/yarbus/Desktop/Team Cat/visual-word-paradigm/trials/subject-8.csv","2000","legacy","Melodramatic Milgram","4.0.13","False","mono","black","32","None","380","Pause. Look at the fixation dot in order to continue.","30000","-480","480","-480","480","270","270","-270","-270","1000","0","2","legacy","In the bar, the girl played darts. ","500","1024","2","3.4079999923706055","48000","-16","C:\Users\yarbus\AppData\Local\Temp\tmpagpyebks.opensesame_pool\53_darts.ogg","dog","dart","popcorn","shoppingcart","dog","dart","popcorn","shoppingcart","experiment","dart","8","even","2809","BR","153235.0","C:\Users\yarbus\Desktop\Team Cat\visual-word-paradigm\temp","13459","56097","147178","520","147178","858","56097","147108","155730","NA","153207","808","148199","147142","146857","NA","149254","60867","147132","581","experiment-visual-word-paradigm","155235.0","played","1930","wolf.mp4","1920"
"01_apple.ogg","white","legacy","True","C:\Users\yarbus\Desktop\Team Cat\visual-word-paradigm\temp","legacy","legacy","motion","C:\Users\yarbus\Desktop\Team Cat\visual-word-paradigm\config.yml","0","0","9","0","9","0","0","9","9","0","9","0","9","9","9","0","9","0","9","0","34.309623571237324","50","Fri Aug  9 14:55:25 2024","20","The main experiment item","False","3835.9999656677246","60866","pygame-experiment-visual-world-paradigm.osexp","C:\Users\yarbus\Desktop\Team Cat\visual-word-paradigm","black","0","0","medium-open","1000","False","mono","False","32","no","black","no","yes","1080","1","Look at the screen and listen carefully. press any key to continue","True","mono","black","32","None","None","c","legacy","-1","chicken","9","9","breakfast","C:/Users/yarbus/Desktop/Team Cat/visual-word-paradigm/trials/subject-8.csv","2000","legacy","Melodramatic Milgram","4.0.13","False","mono","black","32","None","380","Pause. Look at the fixation dot in order to continue.","30000","-480","480","-480","480","270","270","-270","-270","1000","0","2","legacy"," At breakfast, I usually eat an apple.","500","1024","2","3.3359999656677246","48000","-16","C:\Users\yarbus\AppData\Local\Temp\tmpagpyebks.opensesame_pool\01_apple.ogg","pool","wolf","apple","archery","pool","wolf","apple","archery","experiment","apple","8","even","2696","TL","162080.0","C:\Users\yarbus\Desktop\Team Cat\visual-word-paradigm\temp","13459","56097","156030","520","156030","858","56097","155958","164143","NA","162048","808","157052","155997","155733","NA","158139","60867","155984","581","experiment-visual-word-paradigm","164080.0","eat","1657","wolf.mp4","1920"
"39_clothes.ogg","white","legacy","True","C:\Users\yarbus\Desktop\Team Cat\visual-word-paradigm\temp","legacy","legacy","static","C:\Users\yarbus\Desktop\Team Cat\visual-word-paradigm\config.yml","0","0","10","0","10","0","0","10","10","0","10","0","10","10","10","0","10","0","10","0","46.48865990238907","50","Fri Aug  9 14:55:25 2024","20","The main experiment item","False","4243.99995803833","60866","pygame-experiment-visual-world-paradigm.osexp","C:\Users\yarbus\Desktop\Team Cat\visual-word-paradigm","black","0","0","medium-open","1000","False","mono","False","32","no","black","no","yes","1080","39","Look at the screen and listen carefully. press any key to continue","True","mono","black","32","None","None","c","legacy","-1","chicken","10","10","laundromat","C:/Users/yarbus/Desktop/Team Cat/visual-word-paradigm/trials/subject-8.csv","2000","legacy","Melodramatic Milgram","4.0.13","False","mono","black","32","None","380","Pause. Look at the fixation dot in order to continue.","30000","-480","480","-480","480","270","270","-270","-270","1000","0","2","legacy","At the laundromat, the girl washed her clothes.","500","1024","2","3.74399995803833","48000","-16","C:\Users\yarbus\AppData\Local\Temp\tmpagpyebks.opensesame_pool\39_clothes.ogg","clothes","bookshelf","horse","armchair","clothes","bookshelf","horse","armchair","experiment","clothes","8","even","2812","BL","170762.0","C:\Users\yarbus\Desktop\Team Cat\visual-word-paradigm\temp","13459","56097","164372","520","164372","858","56097","164313","173081","NA","170733","808","165391","164346","164157","NA","166444","60867","164336","581","experiment-visual-word-paradigm","172762.0","washed","2027","wolf.mp4","1920"
"13_dice.ogg","white","legacy","True","C:\Users\yarbus\Desktop\Team Cat\visual-word-paradigm\temp","legacy","legacy","motion","C:\Users\yarbus\Desktop\Team Cat\visual-word-paradigm\config.yml","0","0","11","0","11","0","0","11","11","0","11","0","11","11","11","0","11","0","11","0","44.0130592474552","50","Fri Aug  9 14:55:25 2024","20","The main experiment item","False","3644.0000534057617","60866","pygame-experiment-visual-world-paradigm.osexp","C:\Users\yarbus\Desktop\Team Cat\visual-word-paradigm","black","0","0","medium-open","1000","False","mono","False","32","no","black","no","yes","1080","13","Look at the screen and listen carefully. press any key to continue","True","mono","black","32","None","None","c","legacy","-1","chicken","11","11","casino","C:/Users/yarbus/Desktop/Team Cat/visual-word-paradigm/trials/subject-8.csv","2000","legacy","Melodramatic Milgram","4.0.13","False","mono","black","32","None","380","Pause. Look at the fixation dot in order to continue.","30000","-480","480","-480","480","270","270","-270","-270","1000","0","2","legacy","At the casino, the girl threw a dice.","500","1024","2","3.1440000534057617","48000","-16","C:\Users\yarbus\AppData\Local\Temp\tmpagpyebks.opensesame_pool\13_dice.ogg","moon","calendar","dice","injection","moon","calendar","dice","injection","experiment","dice","8","even","2221","TL","179303.0","C:\Users\yarbus\Desktop\Team Cat\visual-word-paradigm\temp","13459","56097","173355","520","173355","858","56097","173294","181503","NA","179278","808","174379","173331","173095","NA","175527","60867","173317","581","experiment-visual-word-paradigm","181303.0","threw","1621","wolf.mp4","1920"
"28_rollercoaster.ogg","white","legacy","True","C:\Users\yarbus\Desktop\Team Cat\visual-word-paradigm\temp","legacy","legacy","motion","C:\Users\yarbus\Desktop\Team Cat\visual-word-paradigm\config.yml","0","0","12","0","12","0","0","12","12","0","12","0","12","12","12","0","12","0","12","0","46.28850825852993","50","Fri Aug  9 14:55:25 2024","20","The main experiment item","False","4292.00005531311","60866","pygame-experiment-visual-world-paradigm.osexp","C:\Users\yarbus\Desktop\Team Cat\visual-word-paradigm","black","0","0","medium-open","1000","False","mono","False","32","no","black","no","yes","1080","28","Look at the screen and listen carefully. press any key to continue","True","mono","black","32","None","None","c","legacy","-1","chicken","12","12","carnival","C:/Users/yarbus/Desktop/Team Cat/visual-word-paradigm/trials/subject-8.csv","2000","legacy","Melodramatic Milgram","4.0.13","False","mono","black","32","None","380","Pause. Look at the fixation dot in order to continue.","30000","-480","480","-480","480","270","270","-270","-270","1000","0","2","legacy","At the carnival, the girl rode a roller coaster.","500","1024","2","3.7920000553131104","48000","-16","C:\Users\yarbus\AppData\Local\Temp\tmpagpyebks.opensesame_pool\28_rollercoaster.ogg","picnic","bust","videogame","rollercoaster","picnic","bust","videogame","rollercoaster","experiment","rollercoaster","8","even","2229","TR","188300.0","C:\Users\yarbus\Desktop\Team Cat\visual-word-paradigm\temp","13459","56097","181767","520","181767","858","56097","181697","191370","NA","188272","808","182782","181733","181515","NA","183869","60867","181724","581","experiment-visual-word-paradigm","190300.0","rode","1651","wolf.mp4","1920"
"03_sandwich.ogg","white","legacy","True","C:\Users\yarbus\Desktop\Team Cat\visual-word-paradigm\temp","legacy","legacy","motion","C:\Users\yarbus\Desktop\Team Cat\visual-word-paradigm\config.yml","0","0","13","0","13","0","0","13","13","0","13","0","13","13","13","0","13","0","13","0","49.97207984785105","50","Fri Aug  9 14:55:25 2024","20","The main experiment item","False","4099.999904632568","60866","pygame-experiment-visual-world-paradigm.osexp","C:\Users\yarbus\Desktop\Team Cat\visual-word-paradigm","black","0","0","medium-open","1000","False","mono","False","32","no","black","no","yes","1080","3","Look at the screen and listen carefully. press any key to continue","True","mono","black","32","None","None","c","legacy","-1","chicken","13","13","dinner time","C:/Users/yarbus/Desktop/Team Cat/visual-word-paradigm/trials/subject-8.csv","2000","legacy","Melodramatic Milgram","4.0.13","False","mono","black","32","None","380","Pause. Look at the fixation dot in order to continue.","30000","-480","480","-480","480","270","270","-270","-270","1000","0","2","legacy","At dinner time, the girl ate a sandwich.","500","1024","2","3.5999999046325684","48000","-16","C:\Users\yarbus\AppData\Local\Temp\tmpagpyebks.opensesame_pool\03_sandwich.ogg","bulldozer","belt","sandwich","patioumbrella","bulldozer","belt","sandwich","patioumbrella","experiment","sandwich","8","even","2711","TL","198024.0","C:\Users\yarbus\Desktop\Team Cat\visual-word-paradigm\temp","13459","56097","191668","520","191668","858","56097","191611","200065","NA","197994","808","192688","191636","191382","NA","193782","60867","191635","581","experiment-visual-word-paradigm","200024.0","ate","2287","wolf.mp4","1920"
"15_keyboard.ogg","white","legacy","True","C:\Users\yarbus\Desktop\Team Cat\visual-word-paradigm\temp","legacy","legacy","motion","C:\Users\yarbus\Desktop\Team Cat\visual-word-paradigm\config.yml","0","0","14","0","14","0","0","14","14","0","14","0","14","14","14","0","14","0","14","0","45.891783609705094","50","Fri Aug  9 14:55:25 2024","20","The main experiment item","False","4196.000099182129","60866","pygame-experiment-visual-world-paradigm.osexp","C:\Users\yarbus\Desktop\Team Cat\visual-word-paradigm","black","0","0","medium-open","1000","False","mono","False","32","no","black","no","yes","1080","15","Look at the screen and listen carefully. press any key to continue","True","mono","black","32","None","None","c","legacy","-1","chicken","14","14","desk","C:/Users/yarbus/Desktop/Team Cat/visual-word-paradigm/trials/subject-8.csv","2000","legacy","Melodramatic Milgram","4.0.13","False","mono","black","32","None","380","Pause. Look at the fixation dot in order to continue.","30000","-480","480","-480","480","270","270","-270","-270","1000","0","2","legacy","At her desk, the girl typed on the keyboard.","500","1024","2","3.696000099182129","48000","-16","C:\Users\yarbus\AppData\Local\Temp\tmpagpyebks.opensesame_pool\15_keyboard.ogg","paintcan","sofa","keyboard","bowl","paintcan","sofa","keyboard","bowl","experiment","keyboard","8","even","2111","TL","206677.0","C:\Users\yarbus\Desktop\Team Cat\visual-word-paradigm\temp","13459","56097","200297","520","200297","858","56097","200245","209964","NA","206645","808","201318","200280","200077","NA","202411","60867","200268","581","experiment-visual-word-paradigm","208677.0","typed","1500","wolf.mp4","1920"
"36_marathon.ogg","white","legacy","True","C:\Users\yarbus\Desktop\Team Cat\visual-word-paradigm\temp","legacy","legacy","static","C:\Users\yarbus\Desktop\Team Cat\visual-word-paradigm\config.yml","0","0","15","0","15","0","0","15","15","0","15","0","15","15","15","0","15","0","15","0","33.53443325538688","50","Fri Aug  9 14:55:25 2024","20","The main experiment item","False","3835.9999656677246","60866","pygame-experiment-visual-world-paradigm.osexp","C:\Users\yarbus\Desktop\Team Cat\visual-word-paradigm","black","0","0","medium-open","1000","False","mono","False","32","no","black","no","yes","1080","36","Look at the screen and listen carefully. press any key to continue","True","mono","black","32","None","None","c","legacy","-1","chicken","15","15","stadium","C:/Users/yarbus/Desktop/Team Cat/visual-word-paradigm/trials/subject-8.csv","2000","legacy","Melodramatic Milgram","4.0.13","False","mono","black","32","None","380","Pause. Look at the fixation dot in order to continue.","30000","-480","480","-480","480","270","270","-270","-270","1000","0","2","legacy","At the stadium, the girl ran a marathon.","500","1024","2","3.3359999656677246","48000","-16","C:\Users\yarbus\AppData\Local\Temp\tmpagpyebks.opensesame_pool\36_marathon.ogg","marathon","dishes","mouse","bust","marathon","dishes","mouse","bust","experiment","marathon","8","even","2382","BL","216267.0","C:\Users\yarbus\Desktop\Team Cat\visual-word-paradigm\temp","13459","56097","210303","520","210303","858","56097","210228","218267","NA","216242","808","211322","210266","209976","NA","212365","60867","210251","581","experiment-visual-word-paradigm","218267.0","ran","1389","wolf.mp4","1920"
"31_landscape.ogg","white","legacy","True","C:\Users\yarbus\Desktop\Team Cat\visual-word-paradigm\temp","legacy","legacy","motion","C:\Users\yarbus\Desktop\Team Cat\visual-word-paradigm\config.yml","0","0","16","0","16","0","0","16","16","0","16","0","16","16","16","0","16","0","16","0","29.1048451224191","50","Fri Aug  9 14:55:25 2024","20","The main experiment item","False","4220.0000286102295","60866","pygame-experiment-visual-world-paradigm.osexp","C:\Users\yarbus\Desktop\Team Cat\visual-word-paradigm","black","0","0","medium-open","1000","False","mono","False","32","no","black","no","yes","1080","31","Look at the screen and listen carefully. press any key to continue","True","mono","black","32","None","None","c","legacy","-1","chicken","16","16","art class","C:/Users/yarbus/Desktop/Team Cat/visual-word-paradigm/trials/subject-8.csv","2000","legacy","Melodramatic Milgram","4.0.13","False","mono","black","32","None","380","Pause. Look at the fixation dot in order to continue.","30000","-480","480","-480","480","270","270","-270","-270","1000","0","2","legacy","During art class, the girl painted a landscape.","500","1024","2","3.7200000286102295","48000","-16","C:\Users\yarbus\AppData\Local\Temp\tmpagpyebks.opensesame_pool\31_landscape.ogg","cats","boxtruck","belt","landscapepainting","cats","boxtruck","belt","landscapepainting","experiment","landscapepainting","8","even","2742","TR","225001.0","C:\Users\yarbus\Desktop\Team Cat\visual-word-paradigm\temp","13459","56097","218487","520","218487","858","56097","218435","227001","NA","224970","808","219510","218470","218279","NA","220693","60867","218458","581","experiment-visual-word-paradigm","227001.0","painted","2015","wolf.mp4","1920"
"20_seashells.ogg","white","legacy","True","C:\Users\yarbus\Desktop\Team Cat\visual-word-paradigm\temp","legacy","legacy","motion","C:\Users\yarbus\Desktop\Team Cat\visual-word-paradigm\config.yml","0","0","17","0","17","0","0","17","17","0","17","0","17","17","17","0","17","0","17","0","46.65525950029638","50","Fri Aug  9 14:55:25 2024","20","The main experiment item","False","3980.0000190734863","60866","pygame-experiment-visual-world-paradigm.osexp","C:\Users\yarbus\Desktop\Team Cat\visual-word-paradigm","black","0","0","medium-open","1000","False","mono","False","32","no","black","no","yes","1080","20","Look at the screen and listen carefully. press any key to continue","True","mono","black","32","None","None","c","legacy","-1","chicken","17","17","beach","C:/Users/yarbus/Desktop/Team Cat/visual-word-paradigm/trials/subject-8.csv","2000","legacy","Melodramatic Milgram","4.0.13","False","mono","black","32","None","380","Pause. Look at the fixation dot in order to continue.","30000","-480","480","-480","480","270","270","-270","-270","1000","0","2","legacy","At the beach, the girl collected seashells.","500","1024","2","3.4800000190734863","48000","-16","C:\Users\yarbus\AppData\Local\Temp\tmpagpyebks.opensesame_pool\20_seashells.ogg","documents","basketballhoop","apple","seashells","documents","basketballhoop","apple","seashells","experiment","seashells","8","even","2070","TR","233342.0","C:\Users\yarbus\Desktop\Team Cat\visual-word-paradigm\temp","13459","56097","227178","520","227178","858","56097","227130","235902","NA","233315","808","228195","227166","227012","NA","229270","60867","227154","581","experiment-visual-word-paradigm","235342.0","built","1300","wolf.mp4","1920"
"19_sandcastle.ogg","white","legacy","True","C:\Users\yarbus\Desktop\Team Cat\visual-word-paradigm\temp","legacy","legacy","motion","C:\Users\yarbus\Desktop\Team Cat\visual-word-paradigm\config.yml","0","0","18","0","18","0","0","18","18","0","18","0","18","18","18","0","18","0","18","0","35.39872905515116","50","Fri Aug  9 14:55:25 2024","20","The main experiment item","False","3476.0000705718994","60866","pygame-experiment-visual-world-paradigm.osexp","C:\Users\yarbus\Desktop\Team Cat\visual-word-paradigm","black","0","0","medium-open","1000","False","mono","False","32","no","black","no","yes","1080","19","Look at the screen and listen carefully. press any key to continue","True","mono","black","32","None","None","c","legacy","-1","chicken","18","18","beach","C:/Users/yarbus/Desktop/Team Cat/visual-word-paradigm/trials/subject-8.csv","2000","legacy","Melodramatic Milgram","4.0.13","False","mono","black","32","None","380","Pause. Look at the fixation dot in order to continue.","30000","-480","480","-480","480","270","270","-270","-270","1000","0","2","legacy","At the beach, the girl built a sandcastle.","500","1024","2","2.9760000705718994","48000","-16","C:\Users\yarbus\AppData\Local\Temp\tmpagpyebks.opensesame_pool\19_sandcastle.ogg","meditation","dart","math","sandcastle","meditation","dart","math","sandcastle","experiment","sandcastle","8","even","1787","TR","241823.0","C:\Users\yarbus\Desktop\Team Cat\visual-word-paradigm\temp","13459","56097","236157","520","236157","858","56097","236095","244120","NA","241794","808","237173","236127","235916","NA","238273","60867","236118","581","experiment-visual-word-paradigm","243823.0","built","1169","wolf.mp4","1920"
"42_bicycle.ogg","white","legacy","True","C:\Users\yarbus\Desktop\Team Cat\visual-word-paradigm\temp","legacy","legacy","static","C:\Users\yarbus\Desktop\Team Cat\visual-word-paradigm\config.yml","0","0","19","0","19","0","0","19","19","0","19","0","19","19","19","0","19","0","19","0","46.93217668593698","50","Fri Aug  9 14:55:25 2024","20","The main experiment item","False","4292.00005531311","60866","pygame-experiment-visual-world-paradigm.osexp","C:\Users\yarbus\Desktop\Team Cat\visual-word-paradigm","black","0","0","medium-open","1000","False","mono","False","32","no","black","no","yes","1080","42","Look at the screen and listen carefully. press any key to continue","True","mono","black","32","None","None","c","legacy","-1","chicken","19","19","garage","C:/Users/yarbus/Desktop/Team Cat/visual-word-paradigm/trials/subject-8.csv","2000","legacy","Melodramatic Milgram","4.0.13","False","mono","black","32","None","380","Pause. Look at the fixation dot in order to continue.","30000","-480","480","-480","480","270","270","-270","-270","1000","0","2","legacy","In the garage, the girl fixed her bicycle.","500","1024","2","3.7920000553131104","48000","-16","C:\Users\yarbus\AppData\Local\Temp\tmpagpyebks.opensesame_pool\42_bicycle.ogg","bicycle","clothes","patioumbrella","card","bicycle","clothes","patioumbrella","card","experiment","bicycle","8","even","2516","BL","250807.0","C:\Users\yarbus\Desktop\Team Cat\visual-word-paradigm\temp","13459","56097","244386","520","244386","858","56097","244321","252807","NA","250775","808","245406","244358","244133","NA","246443","60867","244348","581","experiment-visual-word-paradigm","252807.0","fixed","1627","wolf.mp4","1920"
"27_treadmill.ogg","white","legacy","True","C:\Users\yarbus\Desktop\Team Cat\visual-word-paradigm\temp","legacy","legacy","motion","C:\Users\yarbus\Desktop\Team Cat\visual-word-paradigm\config.yml","0","0","20","0","20","0","0","20","20","0","20","0","20","20","20","0","20","0","20","0","36.759209262442006","50","Fri Aug  9 14:55:25 2024","20","The main experiment item","False","4339.9999141693115","60866","pygame-experiment-visual-world-paradigm.osexp","C:\Users\yarbus\Desktop\Team Cat\visual-word-paradigm","black","0","0","medium-open","1000","False","mono","False","32","no","black","no","yes","1080","27","Look at the screen and listen carefully. press any key to continue","True","mono","black","32","None","None","c","legacy","-1","chicken","20","20","gym","C:/Users/yarbus/Desktop/Team Cat/visual-word-paradigm/trials/subject-8.csv","2000","legacy","Melodramatic Milgram","4.0.13","False","mono","black","32","None","380","Pause. Look at the fixation dot in order to continue.","30000","-480","480","-480","480","270","270","-270","-270","1000","0","2","legacy","At the gym, the girl ran on the treadmill.","500","1024","2","3.8399999141693115","48000","-16","C:\Users\yarbus\AppData\Local\Temp\tmpagpyebks.opensesame_pool\27_treadmill.ogg","oven","duck","belt","treadmill","oven","duck","belt","treadmill","experiment","treadmill","8","even","2689","TR","259643.0","C:\Users\yarbus\Desktop\Team Cat\visual-word-paradigm\temp","13459","56097","253032","520","253032","858","56097","252977","261775","NA","259618","808","254055","253012","252820","NA","255164","60867","253001","581","experiment-visual-word-paradigm","261643.0","ran","1849","wolf.mp4","1920"
"35_soccermatch.ogg","white","legacy","True","C:\Users\yarbus\Desktop\Team Cat\visual-word-paradigm\temp","legacy","legacy","static","C:\Users\yarbus\Desktop\Team Cat\visual-word-paradigm\config.yml","0","0","21","0","21","0","0","21","21","0","21","0","21","21","21","0","21","0","21","0","40.96293566237657","50","Fri Aug  9 14:55:25 2024","20","The main experiment item","False","4292.00005531311","60866","pygame-experiment-visual-world-paradigm.osexp","C:\Users\yarbus\Desktop\Team Cat\visual-word-paradigm","black","0","0","medium-open","1000","False","mono","False","32","no","black","no","yes","1080","35","Look at the screen and listen carefully. press any key to continue","True","mono","black","32","None","None","c","legacy","-1","chicken","21","21","stadium","C:/Users/yarbus/Desktop/Team Cat/visual-word-paradigm/trials/subject-8.csv","2000","legacy","Melodramatic Milgram","4.0.13","False","mono","black","32","None","380","Pause. Look at the fixation dot in order to continue.","30000","-480","480","-480","480","270","270","-270","-270","1000","0","2","legacy","At the stadium, the girl watched a soccer match.","500","1024","2","3.7920000553131104","48000","-16","C:\Users\yarbus\AppData\Local\Temp\tmpagpyebks.opensesame_pool\35_soccermatch.ogg","soccer","parkfountain","bottlecap","nintendods","soccer","parkfountain","bottlecap","nintendods","experiment","soccer","8","even","2580","BL","268446.0","C:\Users\yarbus\Desktop\Team Cat\visual-word-paradigm\temp","13459","56097","262018","520","262018","858","56097","261963","271022","NA","268421","808","263034","261997","261789","NA","264092","60867","261986","581","experiment-visual-word-paradigm","270446.0","watched","1652","wolf.mp4","1920"
"48_cigarette.ogg","white","legacy","True","C:\Users\yarbus\Desktop\Team Cat\visual-word-paradigm\temp","legacy","legacy","static","C:\Users\yarbus\Desktop\Team Cat\visual-word-paradigm\config.yml","0","0","22","0","22","0","0","22","22","0","22","0","22","22","22","0","22","0","22","0","48.27727743276333","50","Fri Aug  9 14:55:25 2024","20","The main experiment item","False","4003.999948501587","60866","pygame-experiment-visual-world-paradigm.osexp","C:\Users\yarbus\Desktop\Team Cat\visual-word-paradigm","black","0","0","medium-open","1000","False","mono","False","32","no","black","no","yes","1080","48","Look at the screen and listen carefully. press any key to continue","True","mono","black","32","None","None","c","legacy","-1","chicken","22","22","terrace","C:/Users/yarbus/Desktop/Team Cat/visual-word-paradigm/trials/subject-8.csv","2000","legacy","Melodramatic Milgram","4.0.13","False","mono","black","32","None","380","Pause. Look at the fixation dot in order to continue.","30000","-480","480","-480","480","270","270","-270","-270","1000","0","2","legacy","On the terrace, the girl smoked a cigarette.","500","1024","2","3.503999948501587","48000","-16","C:\Users\yarbus\AppData\Local\Temp\tmpagpyebks.opensesame_pool\48_cigarette.ogg","cigarette","bicycle","fishing","car","cigarette","bicycle","fishing","car","experiment","cigarette","8","even","2273","BL","277423.0","C:\Users\yarbus\Desktop\Team Cat\visual-word-paradigm\temp","13459","56097","271285","520","271285","858","56097","271232","280157","NA","277398","808","272308","271267","271034","NA","273358","60867","271266","581","experiment-visual-word-paradigm","279423.0","smoked","1546","wolf.mp4","1920"
"11_chicken.ogg","white","legacy","True","C:\Users\yarbus\Desktop\Team Cat\visual-word-paradigm\temp","legacy","legacy","motion","C:\Users\yarbus\Desktop\Team Cat\visual-word-paradigm\config.yml","0","0","23","0","23","0","0","23","23","0","23","0","23","23","23","0","23","0","23","0","39.72203458233228","50","Fri Aug  9 14:55:25 2024","20","The main experiment item","False","3548.0000972747803","60866","pygame-experiment-visual-world-paradigm.osexp","C:\Users\yarbus\Desktop\Team Cat\visual-word-paradigm","black","0","0","medium-open","1000","False","mono","False","32","no","black","no","yes","1080","11","Look at the screen and listen carefully. press any key to continue","True","mono","black","32","None","None","c","legacy","-1","chicken","23","23","farm","C:/Users/yarbus/Desktop/Team Cat/visual-word-paradigm/trials/subject-8.csv","2000","legacy","Melodramatic Milgram","4.0.13","False","mono","black","32","None","380","Pause. Look at the fixation dot in order to continue.","30000","-480","480","-480","480","270","270","-270","-270","1000","0","2","legacy","At the farm, the girl fed the chicken. ","500","1024","2","3.0480000972747803","48000","-16","C:\Users\yarbus\AppData\Local\Temp\tmpagpyebks.opensesame_pool\11_chicken.ogg","shoppingcart","battery","chicken","basketball","shoppingcart","battery","chicken","basketball","experiment","chicken","8","even","2193","TL","286233.0","C:\Users\yarbus\Desktop\Team Cat\visual-word-paradigm\temp","13459","56097","280421","520","280421","858","56097","280361","288751","NA","286206","808","281438","280397","280170","NA","282533","60867","280384","581","experiment-visual-word-paradigm","288233.0","fed","1607","wolf.mp4","1920"
"02_horse.ogg","white","legacy","True","C:\Users\yarbus\Desktop\Team Cat\visual-word-paradigm\temp","legacy","legacy","motion","C:\Users\yarbus\Desktop\Team Cat\visual-word-paradigm\config.yml","0","0","24","0","24","0","0","24","24","0","24","0","24","24","24","0","24","0","24","0","35.37175466385568","50","Fri Aug  9 14:55:25 2024","20","The main experiment item","False","3931.999921798706","60866","pygame-experiment-visual-world-paradigm.osexp","C:\Users\yarbus\Desktop\Team Cat\visual-word-paradigm","black","0","0","medium-open","1000","False","mono","False","32","no","black","no","yes","1080","2","Look at the screen and listen carefully. press any key to continue","True","mono","black","32","None","None","c","legacy","-1","chicken","24","24","countryside","C:/Users/yarbus/Desktop/Team Cat/visual-word-paradigm/trials/subject-8.csv","2000","legacy","Melodramatic Milgram","4.0.13","False","mono","black","32","None","380","Pause. Look at the fixation dot in order to continue.","30000","-480","480","-480","480","270","270","-270","-270","1000","0","2","legacy","In the countryside, the girl rode a horse.","500","1024","2","3.431999921798706","48000","-16","C:\Users\yarbus\AppData\Local\Temp\tmpagpyebks.opensesame_pool\02_horse.ogg","paperclip","oven","horse","novel","paperclip","oven","horse","novel","experiment","horse","8","even","2600","TL","295070.0","C:\Users\yarbus\Desktop\Team Cat\visual-word-paradigm\temp","13459","56097","289005","520","289005","858","56097","288954","297070","NA","295037","808","290027","288981","288754","NA","291076","60867","288978","581","experiment-visual-word-paradigm","297070.0","rode","1655","wolf.mp4","1920"
"06_croissant.ogg","white","legacy","True","C:\Users\yarbus\Desktop\Team Cat\visual-word-paradigm\temp","legacy","legacy","motion","C:\Users\yarbus\Desktop\Team Cat\visual-word-paradigm\config.yml","0","0","25","0","25","0","0","25","25","0","25","0","25","25","25","0","25","0","25","0","35.902800320866426","50","Fri Aug  9 14:55:25 2024","20","The main experiment item","False","4075.999975204468","60866","pygame-experiment-visual-world-paradigm.osexp","C:\Users\yarbus\Desktop\Team Cat\visual-word-paradigm","black","0","0","medium-open","1000","False","mono","False","32","no","black","no","yes","1080","6","Look at the screen and listen carefully. press any key to continue","True","mono","black","32","None","None","c","legacy","-1","chicken","25","25","breakfast","C:/Users/yarbus/Desktop/Team Cat/visual-word-paradigm/trials/subject-8.csv","2000","legacy","Melodramatic Milgram","4.0.13","False","mono","black","32","None","380","Pause. Look at the fixation dot in order to continue.","30000","-480","480","-480","480","270","270","-270","-270","1000","0","2","legacy","At breakfast, the girl ate a croissant. ","500","1024","2","3.5759999752044678","48000","-16","C:\Users\yarbus\AppData\Local\Temp\tmpagpyebks.opensesame_pool\06_croissant.ogg","dance","makeup","croissant","duck","dance","makeup","croissant","duck","experiment","croissant","8","even","2576","TL","303548.0","C:\Users\yarbus\Desktop\Team Cat\visual-word-paradigm\temp","13459","56097","297287","520","297287","858","56097","297228","305844","NA","303516","808","298304","297268","297082","NA","299383","60867","297251","581","experiment-visual-word-paradigm","305548.0","ate","1876","wolf.mp4","1920"
"30_cottoncandy.ogg","white","legacy","True","C:\Users\yarbus\Desktop\Team Cat\visual-word-paradigm\temp","legacy","legacy","motion","C:\Users\yarbus\Desktop\Team Cat\visual-word-paradigm\config.yml","0","0","26","0","26","0","0","26","26","0","26","0","26","26","26","0","26","0","26","0","48.966858593134226","50","Fri Aug  9 14:55:25 2024","20","The main experiment item","False","4028.0001163482666","60866","pygame-experiment-visual-world-paradigm.osexp","C:\Users\yarbus\Desktop\Team Cat\visual-word-paradigm","black","0","0","medium-open","1000","False","mono","False","32","no","black","no","yes","1080","30","Look at the screen and listen carefully. press any key to continue","True","mono","black","32","None","None","c","legacy","-1","chicken","26","26","carnival","C:/Users/yarbus/Desktop/Team Cat/visual-word-paradigm/trials/subject-8.csv","2000","legacy","Melodramatic Milgram","4.0.13","False","mono","black","32","None","380","Pause. Look at the fixation dot in order to continue.","30000","-480","480","-480","480","270","270","-270","-270","1000","0","2","legacy","At the carnival, the girl ate cotton candy.","500","1024","2","3.5280001163482666","48000","-16","C:\Users\yarbus\AppData\Local\Temp\tmpagpyebks.opensesame_pool\30_cottoncandy.ogg","badminton","armchair","boxingglove","cottoncandy","badminton","armchair","boxingglove","cottoncandy","experiment","cottoncandy","8","even","2400","TR","312301.0","C:\Users\yarbus\Desktop\Team Cat\visual-word-paradigm\temp","13459","56097","306083","520","306083","858","56097","306026","314392","NA","312274","808","307105","306060","305855","NA","308178","60867","306049","581","experiment-visual-word-paradigm","314301.0","ate","1970","wolf.mp4","1920"
"34_popcorn.ogg","white","legacy","True","C:\Users\yarbus\Desktop\Team Cat\visual-word-paradigm\temp","legacy","legacy","static","C:\Users\yarbus\Desktop\Team Cat\visual-word-paradigm\config.yml","0","0","27","0","27","0","0","27","27","0","27","0","27","27","27","0","27","0","27","0","42.50608148488876","50","Fri Aug  9 14:55:25 2024","20","The main experiment item","False","4003.999948501587","60866","pygame-experiment-visual-world-paradigm.osexp","C:\Users\yarbus\Desktop\Team Cat\visual-word-paradigm","black","0","0","medium-open","1000","False","mono","False","32","no","black","no","yes","1080","34","Look at the screen and listen carefully. press any key to continue","True","mono","black","32","None","None","c","legacy","-1","chicken","27","27","cinema","C:/Users/yarbus/Desktop/Team Cat/visual-word-paradigm/trials/subject-8.csv","2000","legacy","Melodramatic Milgram","4.0.13","False","mono","black","32","None","380","Pause. Look at the fixation dot in order to continue.","30000","-480","480","-480","480","270","270","-270","-270","1000","0","2","legacy","At the cinema, the girl ate popcorn.","500","1024","2","3.503999948501587","48000","-16","C:\Users\yarbus\AppData\Local\Temp\tmpagpyebks.opensesame_pool\34_popcorn.ogg","popcorn","dice","fishing","keyboard","popcorn","dice","fishing","keyboard","experiment","popcorn","8","even","2182","BL","320765.0","C:\Users\yarbus\Desktop\Team Cat\visual-word-paradigm\temp","13459","56097","314636","520","314636","858","56097","314586","323345","NA","320729","808","315657","314612","314395","NA","316691","60867","314610","581","experiment-visual-word-paradigm","322765.0","ate","1685","wolf.mp4","1920"
"63_meditation.ogg","white","legacy","True","C:\Users\yarbus\Desktop\Team Cat\visual-word-paradigm\temp","legacy","legacy","static","C:\Users\yarbus\Desktop\Team Cat\visual-word-paradigm\config.yml","0","0","28","0","28","0","0","28","28","0","28","0","28","28","28","0","28","0","28","0","30.359677492358195","50","Fri Aug  9 14:55:25 2024","20","The main experiment item","False","4748.000144958496","60866","pygame-experiment-visual-world-paradigm.osexp","C:\Users\yarbus\Desktop\Team Cat\visual-word-paradigm","black","0","0","medium-open","1000","False","mono","False","32","no","black","no","yes","1080","63","Look at the screen and listen carefully. press any key to continue","True","mono","black","32","None","None","c","legacy","-1","chicken","28","28","yoga class","C:/Users/yarbus/Desktop/Team Cat/visual-word-paradigm/trials/subject-8.csv","2000","legacy","Melodramatic Milgram","4.0.13","False","mono","black","32","None","380","Pause. Look at the fixation dot in order to continue.","30000","-480","480","-480","480","270","270","-270","-270","1000","0","2","legacy","During yoga class, the girl practised meditation. ","500","1024","2","4.248000144958496","48000","-16","C:\Users\yarbus\AppData\Local\Temp\tmpagpyebks.opensesame_pool\63_meditation.ogg","barbecue","meditation","mitten","bookshelf","barbecue","meditation","mitten","bookshelf","experiment","meditation","8","even","3105","BR","330496.0","C:\Users\yarbus\Desktop\Team Cat\visual-word-paradigm\temp","13459","56097","323616","520","323616","858","56097","323555","332668","NA","330469","808","324633","323591","323357","NA","325679","60867","323579","581","experiment-visual-word-paradigm","332496.0","practised","2119","wolf.mp4","1920"
"09_cello.ogg","white","legacy","True","C:\Users\yarbus\Desktop\Team Cat\visual-word-paradigm\temp","legacy","legacy","motion","C:\Users\yarbus\Desktop\Team Cat\visual-word-paradigm\config.yml","0","0","29","0","29","0","0","29","29","0","29","0","29","29","29","0","29","0","29","0","47.79818864685148","50","Fri Aug  9 14:55:25 2024","20","The main experiment item","False","4052.000045776367","60866","pygame-experiment-visual-world-paradigm.osexp","C:\Users\yarbus\Desktop\Team Cat\visual-word-paradigm","black","0","0","medium-open","1000","False","mono","False","32","no","black","no","yes","1080","9","Look at the screen and listen carefully. press any key to continue","True","mono","black","32","None","None","c","legacy","-1","chicken","29","29","musical class","C:/Users/yarbus/Desktop/Team Cat/visual-word-paradigm/trials/subject-8.csv","2000","legacy","Melodramatic Milgram","4.0.13","False","mono","black","32","None","380","Pause. Look at the fixation dot in order to continue.","30000","-480","480","-480","480","270","270","-270","-270","1000","0","2","legacy","During musical class, the girl played the cello. ","500","1024","2","3.552000045776367","48000","-16","C:\Users\yarbus\AppData\Local\Temp\tmpagpyebks.opensesame_pool\09_cello.ogg","soccer","brick","cello","pencilsharpener","soccer","brick","cello","pencilsharpener","experiment","cello","8","even","2260","TL","339135.0","C:\Users\yarbus\Desktop\Team Cat\visual-word-paradigm\temp","13459","56097","332788","520","332788","858","56097","332756","342501","NA","339104","808","333811","332780","332681","NA","334930","60867","332779","581","experiment-visual-word-paradigm","341135.0","played","1856","wolf.mp4","1920"
"17_sofa.ogg","white","legacy","True","C:\Users\yarbus\Desktop\Team Cat\visual-word-paradigm\temp","legacy","legacy","motion","C:\Users\yarbus\Desktop\Team Cat\visual-word-paradigm\config.yml","0","0","30","0","30","0","0","30","30","0","30","0","30","30","30","0","30","0","30","0","43.640963584229","50","Fri Aug  9 14:55:25 2024","20","The main experiment item","False","3956.0000896453857","60866","pygame-experiment-visual-world-paradigm.osexp","C:\Users\yarbus\Desktop\Team Cat\visual-word-paradigm","black","0","0","medium-open","1000","False","mono","False","32","no","black","no","yes","1080","17","Look at the screen and listen carefully. press any key to continue","True","mono","black","32","None","None","c","legacy","-1","chicken","30","30","living room","C:/Users/yarbus/Desktop/Team Cat/visual-word-paradigm/trials/subject-8.csv","2000","legacy","Melodramatic Milgram","4.0.13","False","mono","black","32","None","380","Pause. Look at the fixation dot in order to continue.","30000","-480","480","-480","480","270","270","-270","-270","1000","0","2","legacy","In the living room, the girl sat on a sofa. ","500","1024","2","3.4560000896453857","48000","-16","C:\Users\yarbus\AppData\Local\Temp\tmpagpyebks.opensesame_pool\17_sofa.ogg","kite","egg","pencilsharpener","sofa","kite","egg","pencilsharpener","sofa","experiment","sofa","8","even","2636","TR","348936.0","C:\Users\yarbus\Desktop\Team Cat\visual-word-paradigm\temp","13459","56097","342815","520","342815","858","56097","342747","350965","NA","348907","808","343832","342786","342514","NA","344891","60867","342770","581","experiment-visual-word-paradigm","350936.0","sat","1619","wolf.mp4","1920"
"44_bathtub.ogg","white","legacy","True","C:\Users\yarbus\Desktop\Team Cat\visual-word-paradigm\temp","legacy","legacy","static","C:\Users\yarbus\Desktop\Team Cat\visual-word-paradigm\config.yml","0","0","31","0","31","0","0","31","31","0","31","0","31","31","31","0","31","0","31","0","40.911289536263666","50","Fri Aug  9 14:55:25 2024","20","The main experiment item","False","4099.999904632568","60866","pygame-experiment-visual-world-paradigm.osexp","C:\Users\yarbus\Desktop\Team Cat\visual-word-paradigm","black","0","0","medium-open","1000","False","mono","False","32","no","black","no","yes","1080","44","Look at the screen and listen carefully. press any key to continue","True","mono","black","32","None","None","c","legacy","-1","chicken","31","31","spa","C:/Users/yarbus/Desktop/Team Cat/visual-word-paradigm/trials/subject-8.csv","2000","legacy","Melodramatic Milgram","4.0.13","False","mono","black","32","None","380","Pause. Look at the fixation dot in order to continue.","30000","-480","480","-480","480","270","270","-270","-270","1000","0","2","legacy","In the spa, the girl relaxed in the bathtub.","500","1024","2","3.5999999046325684","48000","-16","C:\Users\yarbus\AppData\Local\Temp\tmpagpyebks.opensesame_pool\44_bathtub.ogg","bathtub","wedding","dog","moon","bathtub","wedding","dog","moon","experiment","bathtub","8","even","2713","BL","357401.0","C:\Users\yarbus\Desktop\Team Cat\visual-word-paradigm\temp","13459","56097","351174","520","351174","858","56097","351123","359401","NA","357375","808","352193","351158","350978","NA","353237","60867","351147","581","experiment-visual-word-paradigm","359401.0","relaxed","1683","wolf.mp4","1920"
"52_pool.ogg","white","legacy","True","C:\Users\yarbus\Desktop\Team Cat\visual-word-paradigm\temp","legacy","legacy","static","C:\Users\yarbus\Desktop\Team Cat\visual-word-paradigm\config.yml","0","0","32","0","32","0","0","32","32","0","32","0","32","32","32","0","32","0","32","0","43.77159295250747","50","Fri Aug  9 14:55:25 2024","20","The main experiment item","False","3548.0000972747803","60866","pygame-experiment-visual-world-paradigm.osexp","C:\Users\yarbus\Desktop\Team Cat\visual-word-paradigm","black","0","0","medium-open","1000","False","mono","False","32","no","black","no","yes","1080","52","Look at the screen and listen carefully. press any key to continue","True","mono","black","32","None","None","c","legacy","-1","chicken","32","32","bar","C:/Users/yarbus/Desktop/Team Cat/visual-word-paradigm/trials/subject-8.csv","2000","legacy","Melodramatic Milgram","4.0.13","False","mono","black","32","None","380","Pause. Look at the fixation dot in order to continue.","30000","-480","480","-480","480","270","270","-270","-270","1000","0","2","legacy","In the bar, the girl played pool.","500","1024","2","3.0480000972747803","48000","-16","C:\Users\yarbus\AppData\Local\Temp\tmpagpyebks.opensesame_pool\52_pool.ogg","paperairplane","pool","calculator","dance","paperairplane","pool","calculator","dance","experiment","pool","8","even","1993","BR","365271.0","C:\Users\yarbus\Desktop\Team Cat\visual-word-paradigm\temp","13459","56097","359592","520","359593","858","56097","359545","368410","NA","365240","808","360611","359578","359413","NA","361658","60867","359575","581","experiment-visual-word-paradigm","367271.0","played","1298","wolf.mp4","1920"
"40_shopping_cart.ogg","white","legacy","True","C:\Users\yarbus\Desktop\Team Cat\visual-word-paradigm\temp","legacy","legacy","static","C:\Users\yarbus\Desktop\Team Cat\visual-word-paradigm\config.yml","0","0","33","0","33","0","0","33","33","0","33","0","33","33","33","0","33","0","33","0","48.89287280575776","50","Fri Aug  9 14:55:25 2024","20","The main experiment item","False","4796.000003814697","60866","pygame-experiment-visual-world-paradigm.osexp","C:\Users\yarbus\Desktop\Team Cat\visual-word-paradigm","black","0","0","medium-open","1000","False","mono","False","32","no","black","no","yes","1080","40","Look at the screen and listen carefully. press any key to continue","True","mono","black","32","None","None","c","legacy","-1","chicken","33","33","grocery store","C:/Users/yarbus/Desktop/Team Cat/visual-word-paradigm/trials/subject-8.csv","2000","legacy","Melodramatic Milgram","4.0.13","False","mono","black","32","None","380","Pause. Look at the fixation dot in order to continue.","30000","-480","480","-480","480","270","270","-270","-270","1000","0","2","legacy","At the grocery store, the girl pushed the shopping cart","500","1024","2","4.296000003814697","48000","-16","C:\Users\yarbus\AppData\Local\Temp\tmpagpyebks.opensesame_pool\40_shopping_cart.ogg","shoppingcart","nintendods","bulldozer","paperclip","shoppingcart","nintendods","bulldozer","paperclip","experiment","shoppingcart","8","even","3355","BL","375623.0","C:\Users\yarbus\Desktop\Team Cat\visual-word-paradigm\temp","13459","56097","368698","520","368699","858","56097","368634","378776","NA","375598","808","369719","368673","368413","NA","370759","60867","368659","581","experiment-visual-word-paradigm","377623.0","pushed","2390","wolf.mp4","1920"
"14_card.ogg","white","legacy","True","C:\Users\yarbus\Desktop\Team Cat\visual-word-paradigm\temp","legacy","legacy","motion","C:\Users\yarbus\Desktop\Team Cat\visual-word-paradigm\config.yml","0","0","34","0","34","0","0","34","34","0","34","0","34","34","34","0","34","0","34","0","49.129888776588956","50","Fri Aug  9 14:55:25 2024","20","The main experiment item","False","4075.999975204468","60866","pygame-experiment-visual-world-paradigm.osexp","C:\Users\yarbus\Desktop\Team Cat\visual-word-paradigm","black","0","0","medium-open","1000","False","mono","False","32","no","black","no","yes","1080","14","Look at the screen and listen carefully. press any key to continue","True","mono","black","32","None","None","c","legacy","-1","chicken","34","34","casino","C:/Users/yarbus/Desktop/Team Cat/visual-word-paradigm/trials/subject-8.csv","2000","legacy","Melodramatic Milgram","4.0.13","False","mono","black","32","None","380","Pause. Look at the fixation dot in order to continue.","30000","-480","480","-480","480","270","270","-270","-270","1000","0","2","legacy","At the casino, the girl picked a card. ","500","1024","2","3.5759999752044678","48000","-16","C:\Users\yarbus\AppData\Local\Temp\tmpagpyebks.opensesame_pool\14_card.ogg","vegetables","sandcastle","card","parkfountain","vegetables","sandcastle","card","parkfountain","experiment","card","8","even","2672","TL","385293.0","C:\Users\yarbus\Desktop\Team Cat\visual-word-paradigm\temp","13459","56097","379054","520","379054","858","56097","378991","388766","NA","385267","808","380073","379032","378789","NA","381153","60867","379014","581","experiment-visual-word-paradigm","387293.0","picked","2075","wolf.mp4","1920"
"55_frisbee.ogg","white","legacy","True","C:\Users\yarbus\Desktop\Team Cat\visual-word-paradigm\temp","legacy","legacy","static","C:\Users\yarbus\Desktop\Team Cat\visual-word-paradigm\config.yml","0","0","35","0","35","0","0","35","35","0","35","0","35","35","35","0","35","0","35","0","45.94028934519241","50","Fri Aug  9 14:55:25 2024","20","The main experiment item","False","3716.0000801086426","60866","pygame-experiment-visual-world-paradigm.osexp","C:\Users\yarbus\Desktop\Team Cat\visual-word-paradigm","black","0","0","medium-open","1000","False","mono","False","32","no","black","no","yes","1080","55","Look at the screen and listen carefully. press any key to continue","True","mono","black","32","None","None","c","legacy","-1","chicken","35","35","grass","C:/Users/yarbus/Desktop/Team Cat/visual-word-paradigm/trials/subject-8.csv","2000","legacy","Melodramatic Milgram","4.0.13","False","mono","black","32","None","380","Pause. Look at the fixation dot in order to continue.","30000","-480","480","-480","480","270","270","-270","-270","1000","0","2","legacy","On the grass, the girl played frisbee.","500","1024","2","3.2160000801086426","48000","-16","C:\Users\yarbus\AppData\Local\Temp\tmpagpyebks.opensesame_pool\55_frisbee.ogg","car","frisbee","math","rollercoaster","car","frisbee","math","rollercoaster","experiment","frisbee","8","even","2036","BR","394979.0","C:\Users\yarbus\Desktop\Team Cat\visual-word-paradigm\temp","13459","56097","389142","520","389142","858","56097","389055","398735","NA","394954","808","390160","389107","388778","NA","391200","60867","389084","581","experiment-visual-word-paradigm","396979.0","played","1742","wolf.mp4","1920"
"16_mouse.ogg","white","legacy","True","C:\Users\yarbus\Desktop\Team Cat\visual-word-paradigm\temp","legacy","legacy","motion","C:\Users\yarbus\Desktop\Team Cat\visual-word-paradigm\config.yml","0","0","36","0","36","0","0","36","36","0","36","0","36","36","36","0","36","0","36","0","14.716068523895949","50","Fri Aug  9 14:55:25 2024","20","The main experiment item","False","3740.000009536743","60866","pygame-experiment-visual-world-paradigm.osexp","C:\Users\yarbus\Desktop\Team Cat\visual-word-paradigm","black","0","0","medium-open","1000","False","mono","False","32","no","black","no","yes","1080","16","Look at the screen and listen carefully. press any key to continue","True","mono","black","32","None","None","c","legacy","-1","chicken","36","36","desk","C:/Users/yarbus/Desktop/Team Cat/visual-word-paradigm/trials/subject-8.csv","2000","legacy","Melodramatic Milgram","4.0.13","False","mono","black","32","None","380","Pause. Look at the fixation dot in order to continue.","30000","-480","480","-480","480","270","270","-270","-270","1000","0","2","legacy","At her desk, the girl clicked the mouse. ","500","1024","2","3.240000009536743","48000","-16","C:\Users\yarbus\AppData\Local\Temp\tmpagpyebks.opensesame_pool\16_mouse.ogg","moon","button","mouse","ceilingfan","moon","button","mouse","ceilingfan","experiment","mouse","8","even","2425","TL","405087.0","C:\Users\yarbus\Desktop\Team Cat\visual-word-paradigm\temp","13459","56097","399102","520","399102","858","56097","399020","407087","NA","405063","808","400118","399058","398738","NA","401254","60867","399043","581","experiment-visual-word-paradigm","407087.0","clicked","1427","wolf.mp4","1920"
"26_weights.ogg","white","legacy","True","C:\Users\yarbus\Desktop\Team Cat\visual-word-paradigm\temp","legacy","legacy","motion","C:\Users\yarbus\Desktop\Team Cat\visual-word-paradigm\config.yml","0","0","37","0","37","0","0","37","37","0","37","0","37","37","37","0","37","0","37","0","27.7887592151935","50","Fri Aug  9 14:55:25 2024","20","The main experiment item","False","3907.9999923706055","60866","pygame-experiment-visual-world-paradigm.osexp","C:\Users\yarbus\Desktop\Team Cat\visual-word-paradigm","black","0","0","medium-open","1000","False","mono","False","32","no","black","no","yes","1080","26","Look at the screen and listen carefully. press any key to continue","True","mono","black","32","None","None","c","legacy","-1","chicken","37","37","gym","C:/Users/yarbus/Desktop/Team Cat/visual-word-paradigm/trials/subject-8.csv","2000","legacy","Melodramatic Milgram","4.0.13","False","mono","black","32","None","380","Pause. Look at the fixation dot in order to continue.","30000","-480","480","-480","480","270","270","-270","-270","1000","0","2","legacy","At the gym, the girl lifted weights.","500","1024","2","3.4079999923706055","48000","-16","C:\Users\yarbus\AppData\Local\Temp\tmpagpyebks.opensesame_pool\26_weights.ogg","croissant","horse","paintcan","weights","croissant","horse","paintcan","weights","experiment","weights","8","even","2831","TR","413373.0","C:\Users\yarbus\Desktop\Team Cat\visual-word-paradigm\temp","13459","56097","407228","520","407228","858","56097","407177","416777","NA","413338","808","408257","407210","407088","NA","409313","60867","407200","581","experiment-visual-word-paradigm","415373.0","lifted","1825","wolf.mp4","1920"
"59_documents.ogg","white","legacy","True","C:\Users\yarbus\Desktop\Team Cat\visual-word-paradigm\temp","legacy","legacy","static","C:\Users\yarbus\Desktop\Team Cat\visual-word-paradigm\config.yml","0","0","38","0","38","0","0","38","38","0","38","0","38","38","38","0","38","0","38","0","33.858611477731976","50","Fri Aug  9 14:55:25 2024","20","The main experiment item","False","4243.99995803833","60866","pygame-experiment-visual-world-paradigm.osexp","C:\Users\yarbus\Desktop\Team Cat\visual-word-paradigm","black","0","0","medium-open","1000","False","mono","False","32","no","black","no","yes","1080","59","Look at the screen and listen carefully. press any key to continue","True","mono","black","32","None","None","c","legacy","-1","chicken","38","38","office","C:/Users/yarbus/Desktop/Team Cat/visual-word-paradigm/trials/subject-8.csv","2000","legacy","Melodramatic Milgram","4.0.13","False","mono","black","32","None","380","Pause. Look at the fixation dot in order to continue.","30000","-480","480","-480","480","270","270","-270","-270","1000","0","2","legacy","In the office, the girl printed documents. ","500","1024","2","3.74399995803833","48000","-16","C:\Users\yarbus\AppData\Local\Temp\tmpagpyebks.opensesame_pool\59_documents.ogg","brainmodel","documents","weights","fishing","brainmodel","documents","weights","fishing","experiment","documents","8","even","2487","BR","423449.0","C:\Users\yarbus\Desktop\Team Cat\visual-word-paradigm\temp","13459","56097","417081","520","417081","858","56097","417010","427030","NA","423420","808","418100","417051","416789","NA","419140","60867","417036","581","experiment-visual-word-paradigm","425449.0","printed","1575","wolf.mp4","1920"
"12_egg.ogg","white","legacy","True","C:\Users\yarbus\Desktop\Team Cat\visual-word-paradigm\temp","legacy","legacy","motion","C:\Users\yarbus\Desktop\Team Cat\visual-word-paradigm\config.yml","0","0","39","0","39","0","0","39","39","0","39","0","39","39","39","0","39","0","39","0","48.189639996995254","50","Fri Aug  9 14:55:25 2024","20","The main experiment item","False","3763.9999389648438","60866","pygame-experiment-visual-world-paradigm.osexp","C:\Users\yarbus\Desktop\Team Cat\visual-word-paradigm","black","0","0","medium-open","1000","False","mono","False","32","no","black","no","yes","1080","12","Look at the screen and listen carefully. press any key to continue","True","mono","black","32","None","None","c","legacy","-1","chicken","39","39","farm","C:/Users/yarbus/Desktop/Team Cat/visual-word-paradigm/trials/subject-8.csv","2000","legacy","Melodramatic Milgram","4.0.13","False","mono","black","32","None","380","Pause. Look at the fixation dot in order to continue.","30000","-480","480","-480","480","270","270","-270","-270","1000","0","2","legacy","At the farm, the girl picked the egg. ","500","1024","2","3.2639999389648438","48000","-16","C:\Users\yarbus\AppData\Local\Temp\tmpagpyebks.opensesame_pool\12_egg.ogg","battery","videogame","egg","oven","battery","videogame","egg","oven","experiment","egg","8","even","2263","TL","433200.0","C:\Users\yarbus\Desktop\Team Cat\visual-word-paradigm\temp","13459","56097","427315","520","427315","858","56097","427253","436376","NA","433176","808","428334","427285","427031","NA","429371","60867","427276","581","experiment-visual-word-paradigm","435200.0","picked","1380","wolf.mp4","1920"
"50_cactus.ogg","white","legacy","True","C:\Users\yarbus\Desktop\Team Cat\visual-word-paradigm\temp","legacy","legacy","static","C:\Users\yarbus\Desktop\Team Cat\visual-word-paradigm\config.yml","0","0","40","0","40","0","0","40","40","0","40","0","40","40","40","0","40","0","40","0","49.957946193173285","50","Fri Aug  9 14:55:25 2024","20","The main experiment item","False","5179.999828338623","60866","pygame-experiment-visual-world-paradigm.osexp","C:\Users\yarbus\Desktop\Team Cat\visual-word-paradigm","black","0","0","medium-open","1000","False","mono","False","32","no","black","no","yes","1080","50","Look at the screen and listen carefully. press any key to continue","True","mono","black","32","None","None","c","legacy","-1","chicken","40","40","botanical garden","C:/Users/yarbus/Desktop/Team Cat/visual-word-paradigm/trials/subject-8.csv","2000","legacy","Melodramatic Milgram","4.0.13","False","mono","black","32","None","380","Pause. Look at the fixation dot in order to continue.","30000","-480","480","-480","480","270","270","-270","-270","1000","0","2","legacy","In the botanical garden, the girl got stung by a cactus.","500","1024","2","4.679999828338623","48000","-16","C:\Users\yarbus\AppData\Local\Temp\tmpagpyebks.opensesame_pool\50_cactus.ogg","card","cactus","bear","pacifier","card","cactus","bear","pacifier","experiment","cactus","8","even","3287","BR","443934.0","C:\Users\yarbus\Desktop\Team Cat\visual-word-paradigm\temp","13459","56097","436631","520","436631","858","56097","436568","447423","NA","443906","808","437647","436607","436388","NA","438683","60867","436591","581","experiment-visual-word-paradigm","445934.0","stung","2326","wolf.mp4","1920"
"10_guitar.ogg","white","legacy","True","C:\Users\yarbus\Desktop\Team Cat\visual-word-paradigm\temp","legacy","legacy","motion","C:\Users\yarbus\Desktop\Team Cat\visual-word-paradigm\config.yml","0","0","41","0","41","0","0","41","41","0","41","0","41","41","41","0","41","0","41","0","47.490580362846735","50","Fri Aug  9 14:55:25 2024","20","The main experiment item","False","4220.0000286102295","60866","pygame-experiment-visual-world-paradigm.osexp","C:\Users\yarbus\Desktop\Team Cat\visual-word-paradigm","black","0","0","medium-open","1000","False","mono","False","32","no","black","no","yes","1080","10","Look at the screen and listen carefully. press any key to continue","True","mono","black","32","None","None","c","legacy","-1","chicken","41","41","musical class","C:/Users/yarbus/Desktop/Team Cat/visual-word-paradigm/trials/subject-8.csv","2000","legacy","Melodramatic Milgram","4.0.13","False","mono","black","32","None","380","Pause. Look at the fixation dot in order to continue.","30000","-480","480","-480","480","270","270","-270","-270","1000","0","2","legacy","During musical class, the girl played guitar. ","500","1024","2","3.7200000286102295","48000","-16","C:\Users\yarbus\AppData\Local\Temp\tmpagpyebks.opensesame_pool\10_guitar.ogg","chicken","bowl","guitar","hiking","chicken","bowl","guitar","hiking","experiment","guitar","8","even","2750","TL","454140.0","C:\Users\yarbus\Desktop\Team Cat\visual-word-paradigm\temp","13459","56097","447710","520","447710","858","56097","447644","457568","NA","454114","808","448728","447682","447427","NA","449780","60867","447671","581","experiment-visual-word-paradigm","456140.0","played","1897","wolf.mp4","1920"
"04_banana.ogg","white","legacy","True","C:\Users\yarbus\Desktop\Team Cat\visual-word-paradigm\temp","legacy","legacy","motion","C:\Users\yarbus\Desktop\Team Cat\visual-word-paradigm\config.yml","0","0","42","0","42","0","0","42","42","0","42","0","42","42","42","0","42","0","42","0","47.79985414036324","50","Fri Aug  9 14:55:25 2024","20","The main experiment item","False","4003.999948501587","60866","pygame-experiment-visual-world-paradigm.osexp","C:\Users\yarbus\Desktop\Team Cat\visual-word-paradigm","black","0","0","medium-open","1000","False","mono","False","32","no","black","no","yes","1080","4","Look at the screen and listen carefully. press any key to continue","True","mono","black","32","None","None","c","legacy","-1","chicken","42","42","breakfast","C:/Users/yarbus/Desktop/Team Cat/visual-word-paradigm/trials/subject-8.csv","2000","legacy","Melodramatic Milgram","4.0.13","False","mono","black","32","None","380","Pause. Look at the fixation dot in order to continue.","30000","-480","480","-480","480","270","270","-270","-270","1000","0","2","legacy","At breakfast, the girl ate a banana.","500","1024","2","3.503999948501587","48000","-16","C:\Users\yarbus\AppData\Local\Temp\tmpagpyebks.opensesame_pool\04_banana.ogg","pants","videogame","banana","clothes","pants","videogame","banana","clothes","experiment","banana","8","even","2500","TL","464069.0","C:\Users\yarbus\Desktop\Team Cat\visual-word-paradigm\temp","13459","56097","457880","520","457880","858","56097","457817","466616","NA","464038","808","458901","457842","457570","NA","459958","60867","457840","581","experiment-visual-word-paradigm","466069.0","ate","1770","wolf.mp4","1920"
"58_fish.ogg","white","legacy","True","C:\Users\yarbus\Desktop\Team Cat\visual-word-paradigm\temp","legacy","legacy","static","C:\Users\yarbus\Desktop\Team Cat\visual-word-paradigm\config.yml","0","0","43","0","43","0","0","43","43","0","43","0","43","43","43","0","43","0","43","0","42.485417959577525","50","Fri Aug  9 14:55:25 2024","20","The main experiment item","False","3691.999912261963","60866","pygame-experiment-visual-world-paradigm.osexp","C:\Users\yarbus\Desktop\Team Cat\visual-word-paradigm","black","0","0","medium-open","1000","False","mono","False","32","no","black","no","yes","1080","58","Look at the screen and listen carefully. press any key to continue","True","mono","black","32","None","None","c","legacy","-1","chicken","43","43","lake","C:/Users/yarbus/Desktop/Team Cat/visual-word-paradigm/trials/subject-8.csv","2000","legacy","Melodramatic Milgram","4.0.13","False","mono","black","32","None","380","Pause. Look at the fixation dot in order to continue.","30000","-480","480","-480","480","270","270","-270","-270","1000","0","2","legacy","At the lake, the girl caught a big fish.","500","1024","2","3.191999912261963","48000","-16","C:\Users\yarbus\AppData\Local\Temp\tmpagpyebks.opensesame_pool\58_fish.ogg","blood","fish","boxtruck","mouse","blood","fish","boxtruck","mouse","experiment","fish","8","even","2396","BR","472707.0","C:\Users\yarbus\Desktop\Team Cat\visual-word-paradigm\temp","13459","56097","466874","520","466874","858","56097","466815","475038","NA","472682","808","467895","466851","466628","NA","468952","60867","466838","581","experiment-visual-word-paradigm","474707.0","caught","1467","wolf.mp4","1920"
"32_flowers.ogg","white","legacy","True","C:\Users\yarbus\Desktop\Team Cat\visual-word-paradigm\temp","legacy","legacy","motion","C:\Users\yarbus\Desktop\Team Cat\visual-word-paradigm\config.yml","0","0","44","0","44","0","0","44","44","0","44","0","44","44","44","0","44","0","44","0","40.57470310427415","50","Fri Aug  9 14:55:25 2024","20","The main experiment item","False","3691.999912261963","60866","pygame-experiment-visual-world-paradigm.osexp","C:\Users\yarbus\Desktop\Team Cat\visual-word-paradigm","black","0","0","medium-open","1000","False","mono","False","32","no","black","no","yes","1080","32","Look at the screen and listen carefully. press any key to continue","True","mono","black","32","None","None","c","legacy","-1","chicken","44","44","garden","C:/Users/yarbus/Desktop/Team Cat/visual-word-paradigm/trials/subject-8.csv","2000","legacy","Melodramatic Milgram","4.0.13","False","mono","black","32","None","380","Pause. Look at the fixation dot in order to continue.","30000","-480","480","-480","480","270","270","-270","-270","1000","0","2","legacy","In the garden, the girl planted flowers.","500","1024","2","3.191999912261963","48000","-16","C:\Users\yarbus\AppData\Local\Temp\tmpagpyebks.opensesame_pool\32_flowers.ogg","nailclipper","beer","baggage","flowers","nailclipper","beer","baggage","flowers","experiment","flowers","8","even","2155","TR","481173.0","C:\Users\yarbus\Desktop\Team Cat\visual-word-paradigm\temp","13459","56097","475260","520","475260","858","56097","475199","484012","NA","481148","808","476283","475235","475041","NA","477387","60867","475223","581","experiment-visual-word-paradigm","483173.0","planted","1771","wolf.mp4","1920"
"45_basketball.ogg","white","legacy","True","C:\Users\yarbus\Desktop\Team Cat\visual-word-paradigm\temp","legacy","legacy","static","C:\Users\yarbus\Desktop\Team Cat\visual-word-paradigm\config.yml","0","0","45","0","45","0","0","45","45","0","45","0","45","45","45","0","45","0","45","0","35.103508993831305","50","Fri Aug  9 14:55:25 2024","20","The main experiment item","False","4196.000099182129","60866","pygame-experiment-visual-world-paradigm.osexp","C:\Users\yarbus\Desktop\Team Cat\visual-word-paradigm","black","0","0","medium-open","1000","False","mono","False","32","no","black","no","yes","1080","45","Look at the screen and listen carefully. press any key to continue","True","mono","black","32","None","None","c","legacy","-1","chicken","45","45","sports hall","C:/Users/yarbus/Desktop/Team Cat/visual-word-paradigm/trials/subject-8.csv","2000","legacy","Melodramatic Milgram","4.0.13","False","mono","black","32","None","380","Pause. Look at the fixation dot in order to continue.","30000","-480","480","-480","480","270","270","-270","-270","1000","0","2","legacy","At the sports hall, the girl played basketball.","500","1024","2","3.696000099182129","48000","-16","C:\Users\yarbus\AppData\Local\Temp\tmpagpyebks.opensesame_pool\45_basketball.ogg","basketball","mitten","clothes","boxtruck","basketball","mitten","clothes","boxtruck","experiment","basketball","8","even","2613","BL","490655.0","C:\Users\yarbus\Desktop\Team Cat\visual-word-paradigm\temp","13459","56097","484326","520","484326","858","56097","484257","493156","NA","490630","808","485349","484298","484025","NA","486384","60867","484280","581","experiment-visual-word-paradigm","492655.0","played","1819","wolf.mp4","1920"
"24_cake.ogg","white","legacy","True","C:\Users\yarbus\Desktop\Team Cat\visual-word-paradigm\temp","legacy","legacy","motion","C:\Users\yarbus\Desktop\Team Cat\visual-word-paradigm\config.yml","0","0","46","0","46","0","0","46","46","0","46","0","46","46","46","0","46","0","46","0","29.107429971057286","50","Fri Aug  9 14:55:25 2024","20","The main experiment item","False","3548.0000972747803","60866","pygame-experiment-visual-world-paradigm.osexp","C:\Users\yarbus\Desktop\Team Cat\visual-word-paradigm","black","0","0","medium-open","1000","False","mono","False","32","no","black","no","yes","1080","24","Look at the screen and listen carefully. press any key to continue","True","mono","black","32","None","None","c","legacy","-1","chicken","46","46","kitchen","C:/Users/yarbus/Desktop/Team Cat/visual-word-paradigm/trials/subject-8.csv","2000","legacy","Melodramatic Milgram","4.0.13","False","mono","black","32","None","380","Pause. Look at the fixation dot in order to continue.","30000","-480","480","-480","480","270","270","-270","-270","1000","0","2","legacy","In the kitchen, the girl baked a cake.","500","1024","2","3.0480000972747803","48000","-16","C:\Users\yarbus\AppData\Local\Temp\tmpagpyebks.opensesame_pool\24_cake.ogg","button","cello","seashells","cake","button","cello","seashells","cake","experiment","cake","8","even","2253","TR","499090.0","C:\Users\yarbus\Desktop\Team Cat\visual-word-paradigm\temp","13459","56097","493380","520","493380","858","56097","493320","504740","NA","499050","808","494398","493356","493169","NA","495426","60867","493343","581","experiment-visual-word-paradigm","501090.0","baked","1409","wolf.mp4","1920"
"22_dog.ogg","white","legacy","True","C:\Users\yarbus\Desktop\Team Cat\visual-word-paradigm\temp","legacy","legacy","motion","C:\Users\yarbus\Desktop\Team Cat\visual-word-paradigm\config.yml","0","0","47","0","47","0","0","47","47","0","47","0","47","47","47","0","47","0","47","0","49.73594994367758","50","Fri Aug  9 14:55:25 2024","20","The main experiment item","False","3523.9999294281006","60866","pygame-experiment-visual-world-paradigm.osexp","C:\Users\yarbus\Desktop\Team Cat\visual-word-paradigm","black","0","0","medium-open","1000","False","mono","False","32","no","black","no","yes","1080","22","Look at the screen and listen carefully. press any key to continue","True","mono","black","32","None","None","c","legacy","-1","chicken","47","47","park","C:/Users/yarbus/Desktop/Team Cat/visual-word-paradigm/trials/subject-8.csv","2000","legacy","Melodramatic Milgram","4.0.13","False","mono","black","32","None","380","Pause. Look at the fixation dot in order to continue.","30000","-480","480","-480","480","270","270","-270","-270","1000","0","2","legacy","At the park, the girl walked a dog. ","500","1024","2","3.0239999294281006","48000","-16","C:\Users\yarbus\AppData\Local\Temp\tmpagpyebks.opensesame_pool\22_dog.ogg","calculator","mitten","button","dog","calculator","mitten","button","dog","experiment","dog","8","even","2241","TR","510905.0","C:\Users\yarbus\Desktop\Team Cat\visual-word-paradigm\temp","13459","56097","505157","520","505158","858","56097","505080","513710","NA","510872","808","506173","505118","504754","NA","507280","60867","505103","581","experiment-visual-word-paradigm","512905.0","walked","1379","wolf.mp4","1920"
"54_cd.ogg","white","legacy","True","C:\Users\yarbus\Desktop\Team Cat\visual-word-paradigm\temp","legacy","legacy","static","C:\Users\yarbus\Desktop\Team Cat\visual-word-paradigm\config.yml","0","0","48","0","48","0","0","48","48","0","48","0","48","48","48","0","48","0","48","0","49.442897172394765","50","Fri Aug  9 14:55:25 2024","20","The main experiment item","False","4099.999904632568","60866","pygame-experiment-visual-world-paradigm.osexp","C:\Users\yarbus\Desktop\Team Cat\visual-word-paradigm","black","0","0","medium-open","1000","False","mono","False","32","no","black","no","yes","1080","54","Look at the screen and listen carefully. press any key to continue","True","mono","black","32","None","None","c","legacy","-1","chicken","48","48","car","C:/Users/yarbus/Desktop/Team Cat/visual-word-paradigm/trials/subject-8.csv","2000","legacy","Melodramatic Milgram","4.0.13","False","mono","black","32","None","380","Pause. Look at the fixation dot in order to continue.","30000","-480","480","-480","480","270","270","-270","-270","1000","0","2","legacy","In the car, the girl listened to a CD.","500","1024","2","3.5999999046325684","48000","-16","C:\Users\yarbus\AppData\Local\Temp\tmpagpyebks.opensesame_pool\54_cd.ogg","moon","cd","ceilingfan","brick","moon","cd","ceilingfan","brick","experiment","cd","8","even","2643","BR","520191.0","C:\Users\yarbus\Desktop\Team Cat\visual-word-paradigm\temp","13459","56097","513965","520","513965","858","56097","513909","523000","NA","520162","808","514988","513940","513712","NA","516025","60867","513932","581","experiment-visual-word-paradigm","522191.0","listened","1529","wolf.mp4","1920"
"60_tree.ogg","white","legacy","True","C:\Users\yarbus\Desktop\Team Cat\visual-word-paradigm\temp","legacy","legacy","static","C:\Users\yarbus\Desktop\Team Cat\visual-word-paradigm\config.yml","0","0","49","0","49","0","0","49","49","0","49","0","49","49","49","0","49","0","49","0","40.86987392591267","50","Fri Aug  9 14:55:25 2024","20","The main experiment item","False","4267.999887466431","60866","pygame-experiment-visual-world-paradigm.osexp","C:\Users\yarbus\Desktop\Team Cat\visual-word-paradigm","black","0","0","medium-open","1000","False","mono","False","32","no","black","no","yes","1080","60","Look at the screen and listen carefully. press any key to continue","True","mono","black","32","None","None","c","legacy","-1","chicken","49","49","forest","C:/Users/yarbus/Desktop/Team Cat/visual-word-paradigm/trials/subject-8.csv","2000","legacy","Melodramatic Milgram","4.0.13","False","mono","black","32","None","380","Pause. Look at the fixation dot in order to continue.","30000","-480","480","-480","480","270","270","-270","-270","1000","0","2","legacy","In the forest, the girl cut down a tree.","500","1024","2","3.7679998874664307","48000","-16","C:\Users\yarbus\AppData\Local\Temp\tmpagpyebks.opensesame_pool\60_tree.ogg","bookshelf","tree","calculator","cactus","bookshelf","tree","calculator","cactus","experiment","tree","8","even","2469","BR","529573.0","C:\Users\yarbus\Desktop\Team Cat\visual-word-paradigm\temp","13459","56097","523188","520","523188","858","56097","523135","533060","NA","529544","808","524204","523171","523001","NA","525239","60867","523159","581","experiment-visual-word-paradigm","531573.0","cut","1377","wolf.mp4","1920"
"05_cookie.ogg","white","legacy","True","C:\Users\yarbus\Desktop\Team Cat\visual-word-paradigm\temp","legacy","legacy","motion","C:\Users\yarbus\Desktop\Team Cat\visual-word-paradigm\config.yml","0","0","50","0","50","0","0","50","50","0","50","0","50","50","50","0","50","0","50","0","7.929106128688101","50","Fri Aug  9 14:55:25 2024","20","The main experiment item","False","3907.9999923706055","60866","pygame-experiment-visual-world-paradigm.osexp","C:\Users\yarbus\Desktop\Team Cat\visual-word-paradigm","black","0","0","medium-open","1000","False","mono","False","32","no","black","no","yes","1080","5","Look at the screen and listen carefully. press any key to continue","True","mono","black","32","None","None","c","legacy","-1","chicken","50","50","breakfast","C:/Users/yarbus/Desktop/Team Cat/visual-word-paradigm/trials/subject-8.csv","2000","legacy","Melodramatic Milgram","4.0.13","False","mono","black","32","None","380","Pause. Look at the fixation dot in order to continue.","30000","-480","480","-480","480","270","270","-270","-270","1000","0","2","legacy","At breakfast, the girl ate a cookie.","500","1024","2","3.4079999923706055","48000","-16","C:\Users\yarbus\AppData\Local\Temp\tmpagpyebks.opensesame_pool\05_cookie.ogg","pants","nailclipper","cookie","movie","pants","nailclipper","cookie","movie","experiment","cookie","8","even","2350","TL","539495.0","C:\Users\yarbus\Desktop\Team Cat\visual-word-paradigm\temp","13459","56097","533352","520","533352","858","56097","533282","541910","NA","539466","808","534373","533319","533072","NA","535441","60867","533306","581","experiment-visual-word-paradigm","541495.0","ate","1740","wolf.mp4","1920"
"29_ferriswheel.ogg","white","legacy","True","C:\Users\yarbus\Desktop\Team Cat\visual-word-paradigm\temp","legacy","legacy","motion","C:\Users\yarbus\Desktop\Team Cat\visual-word-paradigm\config.yml","0","0","51","0","51","0","0","51","51","0","51","0","51","51","51","0","51","0","51","0","42.223380429330824","50","Fri Aug  9 14:55:25 2024","20","The main experiment item","False","4843.999862670898","60866","pygame-experiment-visual-world-paradigm.osexp","C:\Users\yarbus\Desktop\Team Cat\visual-word-paradigm","black","0","0","medium-open","1000","False","mono","False","32","no","black","no","yes","1080","29","Look at the screen and listen carefully. press any key to continue","True","mono","black","32","None","None","c","legacy","-1","chicken","51","51","carnival","C:/Users/yarbus/Desktop/Team Cat/visual-word-paradigm/trials/subject-8.csv","2000","legacy","Melodramatic Milgram","4.0.13","False","mono","black","32","None","380","Pause. Look at the fixation dot in order to continue.","30000","-480","480","-480","480","270","270","-270","-270","1000","0","2","legacy","At the carnival, the girl rode on a Ferris wheel.","500","1024","2","4.343999862670898","48000","-16","C:\Users\yarbus\AppData\Local\Temp\tmpagpyebks.opensesame_pool\29_ferriswheel.ogg","vegetables","button","paperclip","ferriswheel","vegetables","button","paperclip","ferriswheel","experiment","ferriswheel","8","even","3120","TR","549137.0","C:\Users\yarbus\Desktop\Team Cat\visual-word-paradigm\temp","13459","56097","542101","520","542101","858","56097","542050","551137","NA","549109","808","543118","542087","541912","NA","544189","60867","542079","581","experiment-visual-word-paradigm","551137.0","rode","1662","wolf.mp4","1920"
"08_letter.ogg","white","legacy","True","C:\Users\yarbus\Desktop\Team Cat\visual-word-paradigm\temp","legacy","legacy","motion","C:\Users\yarbus\Desktop\Team Cat\visual-word-paradigm\config.yml","0","0","52","0","52","0","0","52","52","0","52","0","52","52","52","0","52","0","52","0","46.07810785177711","50","Fri Aug  9 14:55:25 2024","20","The main experiment item","False","3740.000009536743","60866","pygame-experiment-visual-world-paradigm.osexp","C:\Users\yarbus\Desktop\Team Cat\visual-word-paradigm","black","0","0","medium-open","1000","False","mono","False","32","no","black","no","yes","1080","8","Look at the screen and listen carefully. press any key to continue","True","mono","black","32","None","None","c","legacy","-1","chicken","52","52","desk","C:/Users/yarbus/Desktop/Team Cat/visual-word-paradigm/trials/subject-8.csv","2000","legacy","Melodramatic Milgram","4.0.13","False","mono","black","32","None","380","Pause. Look at the fixation dot in order to continue.","30000","-480","480","-480","480","270","270","-270","-270","1000","0","2","legacy","At her desk, the girl wrote a letter.","500","1024","2","3.240000009536743","48000","-16","C:\Users\yarbus\AppData\Local\Temp\tmpagpyebks.opensesame_pool\08_letter.ogg","meditation","bracelet","letter","cactus","meditation","bracelet","letter","cactus","experiment","letter","8","even","2530","TL","557292.0","C:\Users\yarbus\Desktop\Team Cat\visual-word-paradigm\temp","13459","56097","551316","520","551316","858","56097","551276","560329","NA","557266","808","552331","551301","551138","NA","553407","60867","551299","581","experiment-visual-word-paradigm","559292.0","wrote","1550","wolf.mp4","1920"
"38_plants.ogg","white","legacy","True","C:\Users\yarbus\Desktop\Team Cat\visual-word-paradigm\temp","legacy","legacy","static","C:\Users\yarbus\Desktop\Team Cat\visual-word-paradigm\config.yml","0","0","53","0","53","0","0","53","53","0","53","0","53","53","53","0","53","0","53","0","47.46438346887063","50","Fri Aug  9 14:55:25 2024","20","The main experiment item","False","4099.999904632568","60866","pygame-experiment-visual-world-paradigm.osexp","C:\Users\yarbus\Desktop\Team Cat\visual-word-paradigm","black","0","0","medium-open","1000","False","mono","False","32","no","black","no","yes","1080","38","Look at the screen and listen carefully. press any key to continue","True","mono","black","32","None","None","c","legacy","-1","chicken","53","53","backyard","C:/Users/yarbus/Desktop/Team Cat/visual-word-paradigm/trials/subject-8.csv","2000","legacy","Melodramatic Milgram","4.0.13","False","mono","black","32","None","380","Pause. Look at the fixation dot in order to continue.","30000","-480","480","-480","480","270","270","-270","-270","1000","0","2","legacy","In the backyard, the girl watered the plants.","500","1024","2","3.5999999046325684","48000","-16","C:\Users\yarbus\AppData\Local\Temp\tmpagpyebks.opensesame_pool\38_plants.ogg","plants","paintcan","brick","calendar","plants","paintcan","brick","calendar","experiment","plants","8","even","2387","BL","566821.0","C:\Users\yarbus\Desktop\Team Cat\visual-word-paradigm\temp","13459","56097","560583","520","560584","858","56097","560531","572540","NA","566792","808","561608","560562","560332","NA","562653","60867","560554","581","experiment-visual-word-paradigm","568821.0","watered","1510","wolf.mp4","1920"
"37_vegetables.ogg","white","legacy","True","C:\Users\yarbus\Desktop\Team Cat\visual-word-paradigm\temp","legacy","legacy","static","C:\Users\yarbus\Desktop\Team Cat\visual-word-paradigm\config.yml","0","0","54","0","54","0","0","54","54","0","54","0","54","54","54","0","54","0","54","0","48.368986301554784","50","Fri Aug  9 14:55:25 2024","20","The main experiment item","False","4003.999948501587","60866","pygame-experiment-visual-world-paradigm.osexp","C:\Users\yarbus\Desktop\Team Cat\visual-word-paradigm","black","0","0","medium-open","1000","False","mono","False","32","no","black","no","yes","1080","37","Look at the screen and listen carefully. press any key to continue","True","mono","black","32","None","None","c","legacy","-1","chicken","54","54","market","C:/Users/yarbus/Desktop/Team Cat/visual-word-paradigm/trials/subject-8.csv","2000","legacy","Melodramatic Milgram","4.0.13","False","mono","black","32","None","380","Pause. Look at the fixation dot in order to continue.","30000","-480","480","-480","480","270","270","-270","-270","1000","0","2","legacy","At the market, the girl bought fresh vegetables.","500","1024","2","3.503999948501587","48000","-16","C:\Users\yarbus\AppData\Local\Temp\tmpagpyebks.opensesame_pool\37_vegetables.ogg","vegetables","pacifier","duck","bicycle","vegetables","pacifier","duck","bicycle","experiment","vegetables","8","even","2344","BL","579152.0","C:\Users\yarbus\Desktop\Team Cat\visual-word-paradigm\temp","13459","56097","573010","520","573010","858","56097","572916","581452","NA","579127","808","574036","572956","572551","NA","575080","60867","572944","581","experiment-visual-word-paradigm","581152.0","bought","1606","wolf.mp4","1920"
"57_trails.ogg","white","legacy","True","C:\Users\yarbus\Desktop\Team Cat\visual-word-paradigm\temp","legacy","legacy","static","C:\Users\yarbus\Desktop\Team Cat\visual-word-paradigm\config.yml","0","0","55","0","55","0","0","55","55","0","55","0","55","55","55","0","55","0","55","0","48.93184132893429","50","Fri Aug  9 14:55:25 2024","20","The main experiment item","False","3859.999895095825","60866","pygame-experiment-visual-world-paradigm.osexp","C:\Users\yarbus\Desktop\Team Cat\visual-word-paradigm","black","0","0","medium-open","1000","False","mono","False","32","no","black","no","yes","1080","57","Look at the screen and listen carefully. press any key to continue","True","mono","black","32","None","None","c","legacy","-1","chicken","55","55","forest","C:/Users/yarbus/Desktop/Team Cat/visual-word-paradigm/trials/subject-8.csv","2000","legacy","Melodramatic Milgram","4.0.13","False","mono","black","32","None","380","Pause. Look at the fixation dot in order to continue.","30000","-480","480","-480","480","270","270","-270","-270","1000","0","2","legacy","In the forest, the girl hiked on trails.","500","1024","2","3.359999895095825","48000","-16","C:\Users\yarbus\AppData\Local\Temp\tmpagpyebks.opensesame_pool\57_trails.ogg","bust","hiking","belt","bathtub","bust","hiking","belt","bathtub","experiment","trails","8","even","2394","BR","587639.0","C:\Users\yarbus\Desktop\Team Cat\visual-word-paradigm\temp","13459","56097","581662","520","581662","858","56097","581613","591925","NA","587610","808","582679","581648","581455","NA","583717","60867","581636","581","experiment-visual-word-paradigm","589639.0","hiked","1349","wolf.mp4","1920"
"33_movie.ogg","white","legacy","True","C:\Users\yarbus\Desktop\Team Cat\visual-word-paradigm\temp","legacy","legacy","static","C:\Users\yarbus\Desktop\Team Cat\visual-word-paradigm\config.yml","0","0","56","0","56","0","0","56","56","0","56","0","56","56","56","0","56","0","56","0","25.94611220819026","50","Fri Aug  9 14:55:25 2024","20","The main experiment item","False","4220.0000286102295","60866","pygame-experiment-visual-world-paradigm.osexp","C:\Users\yarbus\Desktop\Team Cat\visual-word-paradigm","black","0","0","medium-open","1000","False","mono","False","32","no","black","no","yes","1080","33","Look at the screen and listen carefully. press any key to continue","True","mono","black","32","None","None","c","legacy","-1","chicken","56","56","cinema","C:/Users/yarbus/Desktop/Team Cat/visual-word-paradigm/trials/subject-8.csv","2000","legacy","Melodramatic Milgram","4.0.13","False","mono","black","32","None","380","Pause. Look at the fixation dot in order to continue.","30000","-480","480","-480","480","270","270","-270","-270","1000","0","2","legacy","At the cinema, the girl watched a movie.","500","1024","2","3.7200000286102295","48000","-16","C:\Users\yarbus\AppData\Local\Temp\tmpagpyebks.opensesame_pool\33_movie.ogg","movie","button","pants","battleship","movie","button","pants","battleship","experiment","movie","8","even","2212","BL","598695.0","C:\Users\yarbus\Desktop\Team Cat\visual-word-paradigm\temp","13459","56097","592323","520","592323","858","56097","592254","606956","NA","598653","808","593341","592279","591937","NA","594391","60867","592277","581","experiment-visual-word-paradigm","600695.0","watched","1562","wolf.mp4","1920"
"61_cellphone.ogg","white","legacy","True","C:\Users\yarbus\Desktop\Team Cat\visual-word-paradigm\temp","legacy","legacy","static","C:\Users\yarbus\Desktop\Team Cat\visual-word-paradigm\config.yml","0","0","57","0","57","0","0","57","57","0","57","0","57","57","57","0","57","0","57","0","43.1484108629739","50","Fri Aug  9 14:55:25 2024","20","The main experiment item","False","4868.000030517578","60866","pygame-experiment-visual-world-paradigm.osexp","C:\Users\yarbus\Desktop\Team Cat\visual-word-paradigm","black","0","0","medium-open","1000","False","mono","False","32","no","black","no","yes","1080","61","Look at the screen and listen carefully. press any key to continue","True","mono","black","32","None","None","c","legacy","-1","chicken","57","57","cinema","C:/Users/yarbus/Desktop/Team Cat/visual-word-paradigm/trials/subject-8.csv","2000","legacy","Melodramatic Milgram","4.0.13","False","mono","black","32","None","380","Pause. Look at the fixation dot in order to continue.","30000","-480","480","-480","480","270","270","-270","-270","1000","0","2","legacy","In the cinema, the girl turned off her cellphone.","500","1024","2","4.368000030517578","48000","-16","C:\Users\yarbus\AppData\Local\Temp\tmpagpyebks.opensesame_pool\61_cellphone.ogg","documents","cellphone","badminton","bathtub","documents","cellphone","badminton","bathtub","experiment","cellphone","8","even","2297","BR","614582.0","C:\Users\yarbus\Desktop\Team Cat\visual-word-paradigm\temp","13459","56097","607576","520","607576","858","56097","607464","620837","NA","614554","808","608591","607504","606959","NA","609648","60867","607493","581","experiment-visual-word-paradigm","616582.0","turned off","1473","wolf.mp4","1920"
