"audio","background","canvas_backend","central_fixation","cfg_temp_dir","clock_backend","color_backend","condition","config_path","count_calibration_pygaze_init","count_check_group_selection","count_define_logging","count_experiment","count_fixation","count_instruction_screen","count_latin_square_group_select","count_logsleep","count_new_logger","count_outro_screen","count_pause","count_preprocess_videos","count_preview","count_pygaze_start_recording","count_pygaze_stop_recording","count_readme","count_sentence","count_trial_loop","count_trial_sequence","count_utils","d","d_to_continue","datetime","delay_logsleep","description","disable_garbage_collection","duration","end_time","experiment_file","experiment_path","fixdot_color","fixdot_posx","fixdot_posy","fixdot_style","fixtime","font_bold","font_family","font_italic","font_size","font_underline","foreground","form_clicks","fullscreen","height","index","inst","inst_cnt","inst_font","inst_font_col","inst_font_size","inst_posx","inst_posy","key","keyboard_backend","latin_group","latin_group_name","live_row","live_row_trial_loop","location_cue","logfile","minpause","mouse_backend","opensesame_codename","opensesame_version","pause_cntr","pause_font","pause_font_col","pause_font_size","pause_posx","pause_posy","pause_text","pausetimeout","posx_sstimBL","posx_sstimBR","posx_sstimTL","posx_sstimTR","posy_sstimBL","posy_sstimBR","posy_sstimTL","posy_sstimTR","prevtime","repeat_cycle","round_decimals","sampler_backend","sentence","sentenceoffset","sound_buf_size","sound_channels","sound_duration_ms","sound_freq","sound_sample_size","src","sstimBL","sstimBR","sstimTL","sstimTR","sstim_bl","sstim_br","sstim_tl","sstim_tr","start","stimulus_name","subject_nr","subject_parity","target_cue_timing","target_pos","tcur","temp_dir","time_calibration_pygaze_init","time_check_group_selection","time_define_logging","time_experiment","time_fixation","time_instruction_screen","time_latin_square_group_select","time_logsleep","time_new_logger","time_outro_screen","time_pause","time_preprocess_videos","time_preview","time_pygaze_start_recording","time_pygaze_stop_recording","time_readme","time_sentence","time_trial_loop","time_trial_sequence","time_utils","title","tmin","verb_cue","verb_cue_timing","video_file","width"
"63_meditation.ogg","white","legacy","True","C:\Users\yarbus\Desktop\Team Cat\visual-word-paradigm\temp","legacy","legacy","motion","C:\Users\yarbus\Desktop\Team Cat\visual-word-paradigm\config.yml","0","0","0","0","0","0","0","0","0","0","0","0","0","0","0","0","0","0","0","0","45.591546558545275","50","Fri Aug  9 13:39:12 2024","20","The main experiment item","False","4748.000144958496","155760","pygame-experiment-visual-world-paradigm.osexp","C:\Users\yarbus\Desktop\Team Cat\visual-word-paradigm","black","0","0","medium-open","1000","False","mono","False","32","no","black","no","yes","1080","63","Look at the screen and listen carefully. press any key to continue","True","mono","black","32","None","None","w","legacy","1","wolf","0","0","yoga class","C:/Users/yarbus/Desktop/Team Cat/visual-word-paradigm/trials/subject-5.csv","2000","legacy","Melodramatic Milgram","4.0.13","False","mono","black","32","None","380","Pause. Look at the fixation dot in order to continue.","30000","-480","480","-480","480","270","270","-270","-270","1000","0","2","legacy","During yoga class, the girl practised meditation. ","500","1024","2","4.248000144958496","48000","-16","C:\Users\yarbus\AppData\Local\Temp\tmp7mkjzt09.opensesame_pool\63_meditation.ogg","barbecue","meditation","mitten","bookshelf","barbecue","meditation","mitten","bookshelf","experiment","meditation","5","odd","3105","BR","164928.0","C:\Users\yarbus\Desktop\Team Cat\visual-word-paradigm\temp","6152","150893","157820","391","157820","668","150893","NA","170862","NA","164869","645","158866","155773","NA","NA","159998","155761","155765","438","experiment-visual-word-paradigm","166928.0","practised","2119","wolf.mp4","1920"
"58_fish.ogg","white","legacy","True","C:\Users\yarbus\Desktop\Team Cat\visual-word-paradigm\temp","legacy","legacy","motion","C:\Users\yarbus\Desktop\Team Cat\visual-word-paradigm\config.yml","0","0","1","0","1","0","0","1","1","0","1","0","1","1","1","0","1","0","1","0","29.170441019634914","50","Fri Aug  9 13:39:12 2024","20","The main experiment item","False","3691.999912261963","155760","pygame-experiment-visual-world-paradigm.osexp","C:\Users\yarbus\Desktop\Team Cat\visual-word-paradigm","black","0","0","medium-open","1000","False","mono","False","32","no","black","no","yes","1080","58","Look at the screen and listen carefully. press any key to continue","True","mono","black","32","None","None","w","legacy","1","wolf","1","1","lake","C:/Users/yarbus/Desktop/Team Cat/visual-word-paradigm/trials/subject-5.csv","2000","legacy","Melodramatic Milgram","4.0.13","False","mono","black","32","None","380","Pause. Look at the fixation dot in order to continue.","30000","-480","480","-480","480","270","270","-270","-270","1000","0","2","legacy","At the lake, the girl caught a big fish.","500","1024","2","3.191999912261963","48000","-16","C:\Users\yarbus\AppData\Local\Temp\tmp7mkjzt09.opensesame_pool\58_fish.ogg","blood","fish","boxtruck","mouse","blood","fish","boxtruck","mouse","experiment","fish","5","odd","2396","BR","179636.0","C:\Users\yarbus\Desktop\Team Cat\visual-word-paradigm\temp","6152","150893","173646","391","173646","668","150893","171562","181874","NA","179586","645","174689","171594","170881","NA","175783","155761","171584","438","experiment-visual-word-paradigm","181636.0","caught","1467","wolf.mp4","1920"
"12_egg.ogg","white","legacy","True","C:\Users\yarbus\Desktop\Team Cat\visual-word-paradigm\temp","legacy","legacy","static","C:\Users\yarbus\Desktop\Team Cat\visual-word-paradigm\config.yml","0","0","2","0","2","0","0","2","2","0","2","0","2","2","2","0","2","0","2","0","27.636788143342557","50","Fri Aug  9 13:39:12 2024","20","The main experiment item","False","3763.9999389648438","155760","pygame-experiment-visual-world-paradigm.osexp","C:\Users\yarbus\Desktop\Team Cat\visual-word-paradigm","black","0","0","medium-open","1000","False","mono","False","32","no","black","no","yes","1080","12","Look at the screen and listen carefully. press any key to continue","True","mono","black","32","None","None","w","legacy","1","wolf","2","2","farm","C:/Users/yarbus/Desktop/Team Cat/visual-word-paradigm/trials/subject-5.csv","2000","legacy","Melodramatic Milgram","4.0.13","False","mono","black","32","None","380","Pause. Look at the fixation dot in order to continue.","30000","-480","480","-480","480","270","270","-270","-270","1000","0","2","legacy","At the farm, the girl picked the egg. ","500","1024","2","3.2639999389648438","48000","-16","C:\Users\yarbus\AppData\Local\Temp\tmp7mkjzt09.opensesame_pool\12_egg.ogg","battery","videogame","egg","oven","battery","videogame","egg","oven","experiment","egg","5","odd","2263","TL","188126.0","C:\Users\yarbus\Desktop\Team Cat\visual-word-paradigm\temp","6152","150893","182155","391","182155","668","150893","182098","190126","NA","188092","645","183198","182128","181887","NA","184279","155761","182121","438","experiment-visual-word-paradigm","190126.0","picked","1380","wolf.mp4","1920"
"19_sandcastle.ogg","white","legacy","True","C:\Users\yarbus\Desktop\Team Cat\visual-word-paradigm\temp","legacy","legacy","static","C:\Users\yarbus\Desktop\Team Cat\visual-word-paradigm\config.yml","0","0","3","0","3","0","0","3","3","0","3","0","3","3","3","0","3","0","3","0","49.66716682074789","50","Fri Aug  9 13:39:12 2024","20","The main experiment item","False","3476.0000705718994","155760","pygame-experiment-visual-world-paradigm.osexp","C:\Users\yarbus\Desktop\Team Cat\visual-word-paradigm","black","0","0","medium-open","1000","False","mono","False","32","no","black","no","yes","1080","19","Look at the screen and listen carefully. press any key to continue","True","mono","black","32","None","None","w","legacy","1","wolf","3","3","beach","C:/Users/yarbus/Desktop/Team Cat/visual-word-paradigm/trials/subject-5.csv","2000","legacy","Melodramatic Milgram","4.0.13","False","mono","black","32","None","380","Pause. Look at the fixation dot in order to continue.","30000","-480","480","-480","480","270","270","-270","-270","1000","0","2","legacy","At the beach, the girl built a sandcastle.","500","1024","2","2.9760000705718994","48000","-16","C:\Users\yarbus\AppData\Local\Temp\tmp7mkjzt09.opensesame_pool\19_sandcastle.ogg","meditation","dart","math","sandcastle","meditation","dart","math","sandcastle","experiment","sandcastle","5","odd","1787","TR","196120.0","C:\Users\yarbus\Desktop\Team Cat\visual-word-paradigm\temp","6152","150893","190364","391","190364","668","150893","190302","198212","NA","196074","645","191408","190326","190127","NA","192483","155761","190325","438","experiment-visual-word-paradigm","198120.0","built","1169","wolf.mp4","1920"
"33_movie.ogg","white","legacy","True","C:\Users\yarbus\Desktop\Team Cat\visual-word-paradigm\temp","legacy","legacy","motion","C:\Users\yarbus\Desktop\Team Cat\visual-word-paradigm\config.yml","0","0","4","0","4","0","0","4","4","0","4","0","4","4","4","0","4","0","4","0","44.98620441335327","50","Fri Aug  9 13:39:12 2024","20","The main experiment item","False","4220.0000286102295","155760","pygame-experiment-visual-world-paradigm.osexp","C:\Users\yarbus\Desktop\Team Cat\visual-word-paradigm","black","0","0","medium-open","1000","False","mono","False","32","no","black","no","yes","1080","33","Look at the screen and listen carefully. press any key to continue","True","mono","black","32","None","None","w","legacy","1","wolf","4","4","cinema","C:/Users/yarbus/Desktop/Team Cat/visual-word-paradigm/trials/subject-5.csv","2000","legacy","Melodramatic Milgram","4.0.13","False","mono","black","32","None","380","Pause. Look at the fixation dot in order to continue.","30000","-480","480","-480","480","270","270","-270","-270","1000","0","2","legacy","At the cinema, the girl watched a movie.","500","1024","2","3.7200000286102295","48000","-16","C:\Users\yarbus\AppData\Local\Temp\tmp7mkjzt09.opensesame_pool\33_movie.ogg","movie","button","pants","battleship","movie","button","pants","battleship","experiment","movie","5","odd","2212","BL","205004.0","C:\Users\yarbus\Desktop\Team Cat\visual-word-paradigm\temp","6152","150893","198509","391","198509","668","150893","198436","207085","NA","204971","645","199554","198473","198225","NA","200650","155761","198463","438","experiment-visual-word-paradigm","207004.0","watched","1562","wolf.mp4","1920"
"15_keyboard.ogg","white","legacy","True","C:\Users\yarbus\Desktop\Team Cat\visual-word-paradigm\temp","legacy","legacy","static","C:\Users\yarbus\Desktop\Team Cat\visual-word-paradigm\config.yml","0","0","5","0","5","0","0","5","5","0","5","0","5","5","5","0","5","0","5","0","23.569550539626313","50","Fri Aug  9 13:39:12 2024","20","The main experiment item","False","4196.000099182129","155760","pygame-experiment-visual-world-paradigm.osexp","C:\Users\yarbus\Desktop\Team Cat\visual-word-paradigm","black","0","0","medium-open","1000","False","mono","False","32","no","black","no","yes","1080","15","Look at the screen and listen carefully. press any key to continue","True","mono","black","32","None","None","w","legacy","1","wolf","5","5","desk","C:/Users/yarbus/Desktop/Team Cat/visual-word-paradigm/trials/subject-5.csv","2000","legacy","Melodramatic Milgram","4.0.13","False","mono","black","32","None","380","Pause. Look at the fixation dot in order to continue.","30000","-480","480","-480","480","270","270","-270","-270","1000","0","2","legacy","At her desk, the girl typed on the keyboard.","500","1024","2","3.696000099182129","48000","-16","C:\Users\yarbus\AppData\Local\Temp\tmp7mkjzt09.opensesame_pool\15_keyboard.ogg","paintcan","sofa","keyboard","bowl","paintcan","sofa","keyboard","bowl","experiment","keyboard","5","odd","2111","TL","213769.0","C:\Users\yarbus\Desktop\Team Cat\visual-word-paradigm\temp","6152","150893","207352","391","207352","668","150893","207293","216040","NA","213721","645","208393","207318","207097","NA","209469","155761","207316","438","experiment-visual-word-paradigm","215769.0","typed","1500","wolf.mp4","1920"
"05_cookie.ogg","white","legacy","True","C:\Users\yarbus\Desktop\Team Cat\visual-word-paradigm\temp","legacy","legacy","static","C:\Users\yarbus\Desktop\Team Cat\visual-word-paradigm\config.yml","0","0","6","0","6","0","0","6","6","0","6","0","6","6","6","0","6","0","6","0","24.077227777300266","50","Fri Aug  9 13:39:12 2024","20","The main experiment item","False","3907.9999923706055","155760","pygame-experiment-visual-world-paradigm.osexp","C:\Users\yarbus\Desktop\Team Cat\visual-word-paradigm","black","0","0","medium-open","1000","False","mono","False","32","no","black","no","yes","1080","5","Look at the screen and listen carefully. press any key to continue","True","mono","black","32","None","None","w","legacy","1","wolf","6","6","breakfast","C:/Users/yarbus/Desktop/Team Cat/visual-word-paradigm/trials/subject-5.csv","2000","legacy","Melodramatic Milgram","4.0.13","False","mono","black","32","None","380","Pause. Look at the fixation dot in order to continue.","30000","-480","480","-480","480","270","270","-270","-270","1000","0","2","legacy","At breakfast, the girl ate a cookie.","500","1024","2","3.4079999923706055","48000","-16","C:\Users\yarbus\AppData\Local\Temp\tmp7mkjzt09.opensesame_pool\05_cookie.ogg","pants","nailclipper","cookie","movie","pants","nailclipper","cookie","movie","experiment","cookie","5","odd","2350","TL","222429.0","C:\Users\yarbus\Desktop\Team Cat\visual-word-paradigm\temp","6152","150893","216304","391","216304","668","150893","216236","224485","NA","222379","645","217334","216268","216041","NA","218397","155761","216260","438","experiment-visual-word-paradigm","224429.0","ate","1740","wolf.mp4","1920"
"11_chicken.ogg","white","legacy","True","C:\Users\yarbus\Desktop\Team Cat\visual-word-paradigm\temp","legacy","legacy","static","C:\Users\yarbus\Desktop\Team Cat\visual-word-paradigm\config.yml","0","0","7","0","7","0","0","7","7","0","7","0","7","7","7","0","7","0","7","0","41.47540548517877","50","Fri Aug  9 13:39:12 2024","20","The main experiment item","False","3548.0000972747803","155760","pygame-experiment-visual-world-paradigm.osexp","C:\Users\yarbus\Desktop\Team Cat\visual-word-paradigm","black","0","0","medium-open","1000","False","mono","False","32","no","black","no","yes","1080","11","Look at the screen and listen carefully. press any key to continue","True","mono","black","32","None","None","w","legacy","1","wolf","7","7","farm","C:/Users/yarbus/Desktop/Team Cat/visual-word-paradigm/trials/subject-5.csv","2000","legacy","Melodramatic Milgram","4.0.13","False","mono","black","32","None","380","Pause. Look at the fixation dot in order to continue.","30000","-480","480","-480","480","270","270","-270","-270","1000","0","2","legacy","At the farm, the girl fed the chicken. ","500","1024","2","3.0480000972747803","48000","-16","C:\Users\yarbus\AppData\Local\Temp\tmp7mkjzt09.opensesame_pool\11_chicken.ogg","shoppingcart","battery","chicken","basketball","shoppingcart","battery","chicken","basketball","experiment","chicken","5","odd","2193","TL","230546.0","C:\Users\yarbus\Desktop\Team Cat\visual-word-paradigm\temp","6152","150893","224773","391","224773","668","150893","224705","236192","NA","230497","645","225816","224739","224500","NA","226886","155761","224731","438","experiment-visual-word-paradigm","232546.0","fed","1607","wolf.mp4","1920"
"44_bathtub.ogg","white","legacy","True","C:\Users\yarbus\Desktop\Team Cat\visual-word-paradigm\temp","legacy","legacy","motion","C:\Users\yarbus\Desktop\Team Cat\visual-word-paradigm\config.yml","0","0","8","0","8","0","0","8","8","0","8","0","8","8","8","0","8","0","8","0","23.652969234326576","50","Fri Aug  9 13:39:12 2024","20","The main experiment item","False","4099.999904632568","155760","pygame-experiment-visual-world-paradigm.osexp","C:\Users\yarbus\Desktop\Team Cat\visual-word-paradigm","black","0","0","medium-open","1000","False","mono","False","32","no","black","no","yes","1080","44","Look at the screen and listen carefully. press any key to continue","True","mono","black","32","None","None","w","legacy","1","wolf","8","8","spa","C:/Users/yarbus/Desktop/Team Cat/visual-word-paradigm/trials/subject-5.csv","2000","legacy","Melodramatic Milgram","4.0.13","False","mono","black","32","None","380","Pause. Look at the fixation dot in order to continue.","30000","-480","480","-480","480","270","270","-270","-270","1000","0","2","legacy","In the spa, the girl relaxed in the bathtub.","500","1024","2","3.5999999046325684","48000","-16","C:\Users\yarbus\AppData\Local\Temp\tmp7mkjzt09.opensesame_pool\44_bathtub.ogg","bathtub","wedding","dog","moon","bathtub","wedding","dog","moon","experiment","bathtub","5","odd","2713","BL","243324.0","C:\Users\yarbus\Desktop\Team Cat\visual-word-paradigm\temp","6152","150893","236834","391","236834","668","150893","236719","245324","NA","243285","645","237877","236752","236203","NA","239015","155761","236743","438","experiment-visual-word-paradigm","245324.0","relaxed","1683","wolf.mp4","1920"
"46_badminton.ogg","white","legacy","True","C:\Users\yarbus\Desktop\Team Cat\visual-word-paradigm\temp","legacy","legacy","motion","C:\Users\yarbus\Desktop\Team Cat\visual-word-paradigm\config.yml","0","0","9","0","9","0","0","9","9","0","9","0","9","9","9","0","9","0","9","0","45.87023059719665","50","Fri Aug  9 13:39:12 2024","20","The main experiment item","False","3931.999921798706","155760","pygame-experiment-visual-world-paradigm.osexp","C:\Users\yarbus\Desktop\Team Cat\visual-word-paradigm","black","0","0","medium-open","1000","False","mono","False","32","no","black","no","yes","1080","46","Look at the screen and listen carefully. press any key to continue","True","mono","black","32","None","None","w","legacy","1","wolf","9","9","stadium","C:/Users/yarbus/Desktop/Team Cat/visual-word-paradigm/trials/subject-5.csv","2000","legacy","Melodramatic Milgram","4.0.13","False","mono","black","32","None","380","Pause. Look at the fixation dot in order to continue.","30000","-480","480","-480","480","270","270","-270","-270","1000","0","2","legacy","At the stadium, the girl played badminton.","500","1024","2","3.431999921798706","48000","-16","C:\Users\yarbus\AppData\Local\Temp\tmp7mkjzt09.opensesame_pool\46_badminton.ogg","badminton","cactus","ceilingfan","dishes","badminton","cactus","ceilingfan","dishes","experiment","badminton","5","odd","2416","BL","251837.0","C:\Users\yarbus\Desktop\Team Cat\visual-word-paradigm\temp","6152","150893","245589","391","245589","668","150893","245535","255366","NA","251800","645","246631","245559","245338","NA","247748","155761","245557","438","experiment-visual-word-paradigm","253837.0","played","1705","wolf.mp4","1920"
"60_tree.ogg","white","legacy","True","C:\Users\yarbus\Desktop\Team Cat\visual-word-paradigm\temp","legacy","legacy","motion","C:\Users\yarbus\Desktop\Team Cat\visual-word-paradigm\config.yml","0","0","10","0","10","0","0","10","10","0","10","0","10","10","10","0","10","0","10","0","28.693654958544403","50","Fri Aug  9 13:39:12 2024","20","The main experiment item","False","4267.999887466431","155760","pygame-experiment-visual-world-paradigm.osexp","C:\Users\yarbus\Desktop\Team Cat\visual-word-paradigm","black","0","0","medium-open","1000","False","mono","False","32","no","black","no","yes","1080","60","Look at the screen and listen carefully. press any key to continue","True","mono","black","32","None","None","w","legacy","1","wolf","10","10","forest","C:/Users/yarbus/Desktop/Team Cat/visual-word-paradigm/trials/subject-5.csv","2000","legacy","Melodramatic Milgram","4.0.13","False","mono","black","32","None","380","Pause. Look at the fixation dot in order to continue.","30000","-480","480","-480","480","270","270","-270","-270","1000","0","2","legacy","In the forest, the girl cut down a tree.","500","1024","2","3.7679998874664307","48000","-16","C:\Users\yarbus\AppData\Local\Temp\tmp7mkjzt09.opensesame_pool\60_tree.ogg","bookshelf","tree","calculator","cactus","bookshelf","tree","calculator","cactus","experiment","tree","5","odd","2469","BR","262367.0","C:\Users\yarbus\Desktop\Team Cat\visual-word-paradigm\temp","6152","150893","255809","391","255809","668","150893","255719","264367","NA","262319","645","256844","255758","255379","NA","257922","155761","255747","438","experiment-visual-word-paradigm","264367.0","cut","1377","wolf.mp4","1920"
"40_shopping_cart.ogg","white","legacy","True","C:\Users\yarbus\Desktop\Team Cat\visual-word-paradigm\temp","legacy","legacy","motion","C:\Users\yarbus\Desktop\Team Cat\visual-word-paradigm\config.yml","0","0","11","0","11","0","0","11","11","0","11","0","11","11","11","0","11","0","11","0","20.15259581890132","50","Fri Aug  9 13:39:12 2024","20","The main experiment item","False","4796.000003814697","155760","pygame-experiment-visual-world-paradigm.osexp","C:\Users\yarbus\Desktop\Team Cat\visual-word-paradigm","black","0","0","medium-open","1000","False","mono","False","32","no","black","no","yes","1080","40","Look at the screen and listen carefully. press any key to continue","True","mono","black","32","None","None","w","legacy","1","wolf","11","11","grocery store","C:/Users/yarbus/Desktop/Team Cat/visual-word-paradigm/trials/subject-5.csv","2000","legacy","Melodramatic Milgram","4.0.13","False","mono","black","32","None","380","Pause. Look at the fixation dot in order to continue.","30000","-480","480","-480","480","270","270","-270","-270","1000","0","2","legacy","At the grocery store, the girl pushed the shopping cart","500","1024","2","4.296000003814697","48000","-16","C:\Users\yarbus\AppData\Local\Temp\tmp7mkjzt09.opensesame_pool\40_shopping_cart.ogg","shoppingcart","nintendods","bulldozer","paperclip","shoppingcart","nintendods","bulldozer","paperclip","experiment","shoppingcart","5","odd","3355","BL","271756.0","C:\Users\yarbus\Desktop\Team Cat\visual-word-paradigm\temp","6152","150893","264660","391","264660","668","150893","264595","273756","NA","271712","645","265706","264624","264380","NA","266792","155761","264618","438","experiment-visual-word-paradigm","273756.0","pushed","2390","wolf.mp4","1920"
"13_dice.ogg","white","legacy","True","C:\Users\yarbus\Desktop\Team Cat\visual-word-paradigm\temp","legacy","legacy","static","C:\Users\yarbus\Desktop\Team Cat\visual-word-paradigm\config.yml","0","0","12","0","12","0","0","12","12","0","12","0","12","12","12","0","12","0","12","0","33.9700191792704","50","Fri Aug  9 13:39:12 2024","20","The main experiment item","False","3644.0000534057617","155760","pygame-experiment-visual-world-paradigm.osexp","C:\Users\yarbus\Desktop\Team Cat\visual-word-paradigm","black","0","0","medium-open","1000","False","mono","False","32","no","black","no","yes","1080","13","Look at the screen and listen carefully. press any key to continue","True","mono","black","32","None","None","w","legacy","1","wolf","12","12","casino","C:/Users/yarbus/Desktop/Team Cat/visual-word-paradigm/trials/subject-5.csv","2000","legacy","Melodramatic Milgram","4.0.13","False","mono","black","32","None","380","Pause. Look at the fixation dot in order to continue.","30000","-480","480","-480","480","270","270","-270","-270","1000","0","2","legacy","At the casino, the girl threw a dice.","500","1024","2","3.1440000534057617","48000","-16","C:\Users\yarbus\AppData\Local\Temp\tmp7mkjzt09.opensesame_pool\13_dice.ogg","moon","calendar","dice","injection","moon","calendar","dice","injection","experiment","dice","5","odd","2221","TL","279883.0","C:\Users\yarbus\Desktop\Team Cat\visual-word-paradigm\temp","6152","150893","274022","391","274022","668","150893","273967","282010","NA","279838","645","275062","273995","273768","NA","276139","155761","273989","438","experiment-visual-word-paradigm","281883.0","threw","1621","wolf.mp4","1920"
"30_cottoncandy.ogg","white","legacy","True","C:\Users\yarbus\Desktop\Team Cat\visual-word-paradigm\temp","legacy","legacy","static","C:\Users\yarbus\Desktop\Team Cat\visual-word-paradigm\config.yml","0","0","13","0","13","0","0","13","13","0","13","0","13","13","13","0","13","0","13","0","37.21615863250804","50","Fri Aug  9 13:39:12 2024","20","The main experiment item","False","4028.0001163482666","155760","pygame-experiment-visual-world-paradigm.osexp","C:\Users\yarbus\Desktop\Team Cat\visual-word-paradigm","black","0","0","medium-open","1000","False","mono","False","32","no","black","no","yes","1080","30","Look at the screen and listen carefully. press any key to continue","True","mono","black","32","None","None","w","legacy","1","wolf","13","13","carnival","C:/Users/yarbus/Desktop/Team Cat/visual-word-paradigm/trials/subject-5.csv","2000","legacy","Melodramatic Milgram","4.0.13","False","mono","black","32","None","380","Pause. Look at the fixation dot in order to continue.","30000","-480","480","-480","480","270","270","-270","-270","1000","0","2","legacy","At the carnival, the girl ate cotton candy.","500","1024","2","3.5280001163482666","48000","-16","C:\Users\yarbus\AppData\Local\Temp\tmp7mkjzt09.opensesame_pool\30_cottoncandy.ogg","badminton","armchair","boxingglove","cottoncandy","badminton","armchair","boxingglove","cottoncandy","experiment","cottoncandy","5","odd","2400","TR","288544.0","C:\Users\yarbus\Desktop\Team Cat\visual-word-paradigm\temp","6152","150893","282304","391","282304","668","150893","282225","291189","NA","288500","645","283343","282267","282023","NA","284414","155761","282262","438","experiment-visual-word-paradigm","290544.0","ate","1970","wolf.mp4","1920"
"08_letter.ogg","white","legacy","True","C:\Users\yarbus\Desktop\Team Cat\visual-word-paradigm\temp","legacy","legacy","static","C:\Users\yarbus\Desktop\Team Cat\visual-word-paradigm\config.yml","0","0","14","0","14","0","0","14","14","0","14","0","14","14","14","0","14","0","14","0","9.115810722036787","50","Fri Aug  9 13:39:12 2024","20","The main experiment item","False","3740.000009536743","155760","pygame-experiment-visual-world-paradigm.osexp","C:\Users\yarbus\Desktop\Team Cat\visual-word-paradigm","black","0","0","medium-open","1000","False","mono","False","32","no","black","no","yes","1080","8","Look at the screen and listen carefully. press any key to continue","True","mono","black","32","None","None","w","legacy","1","wolf","14","14","desk","C:/Users/yarbus/Desktop/Team Cat/visual-word-paradigm/trials/subject-5.csv","2000","legacy","Melodramatic Milgram","4.0.13","False","mono","black","32","None","380","Pause. Look at the fixation dot in order to continue.","30000","-480","480","-480","480","270","270","-270","-270","1000","0","2","legacy","At her desk, the girl wrote a letter.","500","1024","2","3.240000009536743","48000","-16","C:\Users\yarbus\AppData\Local\Temp\tmp7mkjzt09.opensesame_pool\08_letter.ogg","meditation","bracelet","letter","cactus","meditation","bracelet","letter","cactus","experiment","letter","5","odd","2530","TL","297469.0","C:\Users\yarbus\Desktop\Team Cat\visual-word-paradigm\temp","6152","150893","291504","391","291504","668","150893","291437","299469","NA","297415","645","292544","291469","291192","NA","293614","155761","291460","438","experiment-visual-word-paradigm","299469.0","wrote","1550","wolf.mp4","1920"
"38_plants.ogg","white","legacy","True","C:\Users\yarbus\Desktop\Team Cat\visual-word-paradigm\temp","legacy","legacy","motion","C:\Users\yarbus\Desktop\Team Cat\visual-word-paradigm\config.yml","0","0","15","0","15","0","0","15","15","0","15","0","15","15","15","0","15","0","15","0","41.68314004486721","50","Fri Aug  9 13:39:12 2024","20","The main experiment item","False","4099.999904632568","155760","pygame-experiment-visual-world-paradigm.osexp","C:\Users\yarbus\Desktop\Team Cat\visual-word-paradigm","black","0","0","medium-open","1000","False","mono","False","32","no","black","no","yes","1080","38","Look at the screen and listen carefully. press any key to continue","True","mono","black","32","None","None","w","legacy","1","wolf","15","15","backyard","C:/Users/yarbus/Desktop/Team Cat/visual-word-paradigm/trials/subject-5.csv","2000","legacy","Melodramatic Milgram","4.0.13","False","mono","black","32","None","380","Pause. Look at the fixation dot in order to continue.","30000","-480","480","-480","480","270","270","-270","-270","1000","0","2","legacy","In the backyard, the girl watered the plants.","500","1024","2","3.5999999046325684","48000","-16","C:\Users\yarbus\AppData\Local\Temp\tmp7mkjzt09.opensesame_pool\38_plants.ogg","plants","paintcan","brick","calendar","plants","paintcan","brick","calendar","experiment","plants","5","odd","2387","BL","306152.0","C:\Users\yarbus\Desktop\Team Cat\visual-word-paradigm\temp","6152","150893","299709","391","299709","668","150893","299655","308367","NA","306099","645","300738","299678","299480","NA","301844","155761","299678","438","experiment-visual-word-paradigm","308152.0","watered","1510","wolf.mp4","1920"
"01_apple.ogg","white","legacy","True","C:\Users\yarbus\Desktop\Team Cat\visual-word-paradigm\temp","legacy","legacy","static","C:\Users\yarbus\Desktop\Team Cat\visual-word-paradigm\config.yml","0","0","16","0","16","0","0","16","16","0","16","0","16","16","16","0","16","0","16","0","37.004562330610014","50","Fri Aug  9 13:39:12 2024","20","The main experiment item","False","3835.9999656677246","155760","pygame-experiment-visual-world-paradigm.osexp","C:\Users\yarbus\Desktop\Team Cat\visual-word-paradigm","black","0","0","medium-open","1000","False","mono","False","32","no","black","no","yes","1080","1","Look at the screen and listen carefully. press any key to continue","True","mono","black","32","None","None","w","legacy","1","wolf","16","16","breakfast","C:/Users/yarbus/Desktop/Team Cat/visual-word-paradigm/trials/subject-5.csv","2000","legacy","Melodramatic Milgram","4.0.13","False","mono","black","32","None","380","Pause. Look at the fixation dot in order to continue.","30000","-480","480","-480","480","270","270","-270","-270","1000","0","2","legacy"," At breakfast, I usually eat an apple.","500","1024","2","3.3359999656677246","48000","-16","C:\Users\yarbus\AppData\Local\Temp\tmp7mkjzt09.opensesame_pool\01_apple.ogg","pool","wolf","apple","archery","pool","wolf","apple","archery","experiment","apple","5","odd","2696","TL","314735.0","C:\Users\yarbus\Desktop\Team Cat\visual-word-paradigm\temp","6152","150893","308685","391","308685","668","150893","308617","316735","NA","314691","645","309724","308654","308381","NA","310797","155761","308644","438","experiment-visual-word-paradigm","316735.0","eat","1657","wolf.mp4","1920"
"53_darts.ogg","white","legacy","True","C:\Users\yarbus\Desktop\Team Cat\visual-word-paradigm\temp","legacy","legacy","motion","C:\Users\yarbus\Desktop\Team Cat\visual-word-paradigm\config.yml","0","0","17","0","17","0","0","17","17","0","17","0","17","17","17","0","17","0","17","0","43.950319387235425","50","Fri Aug  9 13:39:12 2024","20","The main experiment item","False","3907.9999923706055","155760","pygame-experiment-visual-world-paradigm.osexp","C:\Users\yarbus\Desktop\Team Cat\visual-word-paradigm","black","0","0","medium-open","1000","False","mono","False","32","no","black","no","yes","1080","53","Look at the screen and listen carefully. press any key to continue","True","mono","black","32","None","None","w","legacy","1","wolf","17","17","bar","C:/Users/yarbus/Desktop/Team Cat/visual-word-paradigm/trials/subject-5.csv","2000","legacy","Melodramatic Milgram","4.0.13","False","mono","black","32","None","380","Pause. Look at the fixation dot in order to continue.","30000","-480","480","-480","480","270","270","-270","-270","1000","0","2","legacy","In the bar, the girl played darts. ","500","1024","2","3.4079999923706055","48000","-16","C:\Users\yarbus\AppData\Local\Temp\tmp7mkjzt09.opensesame_pool\53_darts.ogg","dog","dart","popcorn","shoppingcart","dog","dart","popcorn","shoppingcart","experiment","dart","5","odd","2809","BR","323146.0","C:\Users\yarbus\Desktop\Team Cat\visual-word-paradigm\temp","6152","150893","316955","391","316955","668","150893","316895","325831","NA","323101","645","317990","316930","316746","NA","319073","155761","316917","438","experiment-visual-word-paradigm","325146.0","played","1930","wolf.mp4","1920"
"35_soccermatch.ogg","white","legacy","True","C:\Users\yarbus\Desktop\Team Cat\visual-word-paradigm\temp","legacy","legacy","motion","C:\Users\yarbus\Desktop\Team Cat\visual-word-paradigm\config.yml","0","0","18","0","18","0","0","18","18","0","18","0","18","18","18","0","18","0","18","0","22.390139086660444","50","Fri Aug  9 13:39:12 2024","20","The main experiment item","False","4292.00005531311","155760","pygame-experiment-visual-world-paradigm.osexp","C:\Users\yarbus\Desktop\Team Cat\visual-word-paradigm","black","0","0","medium-open","1000","False","mono","False","32","no","black","no","yes","1080","35","Look at the screen and listen carefully. press any key to continue","True","mono","black","32","None","None","w","legacy","1","wolf","18","18","stadium","C:/Users/yarbus/Desktop/Team Cat/visual-word-paradigm/trials/subject-5.csv","2000","legacy","Melodramatic Milgram","4.0.13","False","mono","black","32","None","380","Pause. Look at the fixation dot in order to continue.","30000","-480","480","-480","480","270","270","-270","-270","1000","0","2","legacy","At the stadium, the girl watched a soccer match.","500","1024","2","3.7920000553131104","48000","-16","C:\Users\yarbus\AppData\Local\Temp\tmp7mkjzt09.opensesame_pool\35_soccermatch.ogg","soccer","parkfountain","bottlecap","nintendods","soccer","parkfountain","bottlecap","nintendods","experiment","soccer","5","odd","2580","BL","332780.0","C:\Users\yarbus\Desktop\Team Cat\visual-word-paradigm\temp","6152","150893","326173","391","326173","668","150893","326105","334780","NA","332721","645","327211","326135","325835","NA","328331","155761","326128","438","experiment-visual-word-paradigm","334780.0","watched","1652","wolf.mp4","1920"
"22_dog.ogg","white","legacy","True","C:\Users\yarbus\Desktop\Team Cat\visual-word-paradigm\temp","legacy","legacy","static","C:\Users\yarbus\Desktop\Team Cat\visual-word-paradigm\config.yml","0","0","19","0","19","0","0","19","19","0","19","0","19","19","19","0","19","0","19","0","48.68686926718536","50","Fri Aug  9 13:39:12 2024","20","The main experiment item","False","3523.9999294281006","155760","pygame-experiment-visual-world-paradigm.osexp","C:\Users\yarbus\Desktop\Team Cat\visual-word-paradigm","black","0","0","medium-open","1000","False","mono","False","32","no","black","no","yes","1080","22","Look at the screen and listen carefully. press any key to continue","True","mono","black","32","None","None","w","legacy","1","wolf","19","19","park","C:/Users/yarbus/Desktop/Team Cat/visual-word-paradigm/trials/subject-5.csv","2000","legacy","Melodramatic Milgram","4.0.13","False","mono","black","32","None","380","Pause. Look at the fixation dot in order to continue.","30000","-480","480","-480","480","270","270","-270","-270","1000","0","2","legacy","At the park, the girl walked a dog. ","500","1024","2","3.0239999294281006","48000","-16","C:\Users\yarbus\AppData\Local\Temp\tmp7mkjzt09.opensesame_pool\22_dog.ogg","calculator","mitten","button","dog","calculator","mitten","button","dog","experiment","dog","5","odd","2241","TR","340813.0","C:\Users\yarbus\Desktop\Team Cat\visual-word-paradigm\temp","6152","150893","335057","391","335057","668","150893","334983","342837","NA","340754","645","336104","335019","334782","NA","337180","155761","335009","438","experiment-visual-word-paradigm","342813.0","walked","1379","wolf.mp4","1920"
"61_cellphone.ogg","white","legacy","True","C:\Users\yarbus\Desktop\Team Cat\visual-word-paradigm\temp","legacy","legacy","motion","C:\Users\yarbus\Desktop\Team Cat\visual-word-paradigm\config.yml","0","0","20","0","20","0","0","20","20","0","20","0","20","20","20","0","20","0","20","0","37.36420420027705","50","Fri Aug  9 13:39:12 2024","20","The main experiment item","False","4868.000030517578","155760","pygame-experiment-visual-world-paradigm.osexp","C:\Users\yarbus\Desktop\Team Cat\visual-word-paradigm","black","0","0","medium-open","1000","False","mono","False","32","no","black","no","yes","1080","61","Look at the screen and listen carefully. press any key to continue","True","mono","black","32","None","None","w","legacy","1","wolf","20","20","cinema","C:/Users/yarbus/Desktop/Team Cat/visual-word-paradigm/trials/subject-5.csv","2000","legacy","Melodramatic Milgram","4.0.13","False","mono","black","32","None","380","Pause. Look at the fixation dot in order to continue.","30000","-480","480","-480","480","270","270","-270","-270","1000","0","2","legacy","In the cinema, the girl turned off her cellphone.","500","1024","2","4.368000030517578","48000","-16","C:\Users\yarbus\AppData\Local\Temp\tmp7mkjzt09.opensesame_pool\61_cellphone.ogg","documents","cellphone","badminton","bathtub","documents","cellphone","badminton","bathtub","experiment","cellphone","5","odd","2297","BR","350217.0","C:\Users\yarbus\Desktop\Team Cat\visual-word-paradigm\temp","6152","150893","343067","391","343067","668","150893","343006","352217","NA","350168","645","344101","343039","342850","NA","345204","155761","343028","438","experiment-visual-word-paradigm","352217.0","turned off","1473","wolf.mp4","1920"
"29_ferriswheel.ogg","white","legacy","True","C:\Users\yarbus\Desktop\Team Cat\visual-word-paradigm\temp","legacy","legacy","static","C:\Users\yarbus\Desktop\Team Cat\visual-word-paradigm\config.yml","0","0","21","0","21","0","0","21","21","0","21","0","21","21","21","0","21","0","21","0","8.125889647294015","50","Fri Aug  9 13:39:12 2024","20","The main experiment item","False","4843.999862670898","155760","pygame-experiment-visual-world-paradigm.osexp","C:\Users\yarbus\Desktop\Team Cat\visual-word-paradigm","black","0","0","medium-open","1000","False","mono","False","32","no","black","no","yes","1080","29","Look at the screen and listen carefully. press any key to continue","True","mono","black","32","None","None","w","legacy","1","wolf","21","21","carnival","C:/Users/yarbus/Desktop/Team Cat/visual-word-paradigm/trials/subject-5.csv","2000","legacy","Melodramatic Milgram","4.0.13","False","mono","black","32","None","380","Pause. Look at the fixation dot in order to continue.","30000","-480","480","-480","480","270","270","-270","-270","1000","0","2","legacy","At the carnival, the girl rode on a Ferris wheel.","500","1024","2","4.343999862670898","48000","-16","C:\Users\yarbus\AppData\Local\Temp\tmp7mkjzt09.opensesame_pool\29_ferriswheel.ogg","vegetables","button","paperclip","ferriswheel","vegetables","button","paperclip","ferriswheel","experiment","ferriswheel","5","odd","3120","TR","359548.0","C:\Users\yarbus\Desktop\Team Cat\visual-word-paradigm\temp","6152","150893","352466","391","352466","668","150893","352405","362089","NA","359468","645","353505","352437","352230","NA","354562","155761","352428","438","experiment-visual-word-paradigm","361548.0","rode","1662","wolf.mp4","1920"
"26_weights.ogg","white","legacy","True","C:\Users\yarbus\Desktop\Team Cat\visual-word-paradigm\temp","legacy","legacy","static","C:\Users\yarbus\Desktop\Team Cat\visual-word-paradigm\config.yml","0","0","22","0","22","0","0","22","22","0","22","0","22","22","22","0","22","0","22","0","12.695364142867358","50","Fri Aug  9 13:39:12 2024","20","The main experiment item","False","3907.9999923706055","155760","pygame-experiment-visual-world-paradigm.osexp","C:\Users\yarbus\Desktop\Team Cat\visual-word-paradigm","black","0","0","medium-open","1000","False","mono","False","32","no","black","no","yes","1080","26","Look at the screen and listen carefully. press any key to continue","True","mono","black","32","None","None","w","legacy","1","wolf","22","22","gym","C:/Users/yarbus/Desktop/Team Cat/visual-word-paradigm/trials/subject-5.csv","2000","legacy","Melodramatic Milgram","4.0.13","False","mono","black","32","None","380","Pause. Look at the fixation dot in order to continue.","30000","-480","480","-480","480","270","270","-270","-270","1000","0","2","legacy","At the gym, the girl lifted weights.","500","1024","2","3.4079999923706055","48000","-16","C:\Users\yarbus\AppData\Local\Temp\tmp7mkjzt09.opensesame_pool\26_weights.ogg","croissant","horse","paintcan","weights","croissant","horse","paintcan","weights","experiment","weights","5","odd","2831","TR","368591.0","C:\Users\yarbus\Desktop\Team Cat\visual-word-paradigm\temp","6152","150893","362423","391","362423","668","150893","362357","370591","NA","368550","645","363469","362389","362102","NA","364540","155761","362388","438","experiment-visual-word-paradigm","370591.0","lifted","1825","wolf.mp4","1920"
"21_kite.ogg","white","legacy","True","C:\Users\yarbus\Desktop\Team Cat\visual-word-paradigm\temp","legacy","legacy","static","C:\Users\yarbus\Desktop\Team Cat\visual-word-paradigm\config.yml","0","0","23","0","23","0","0","23","23","0","23","0","23","23","23","0","23","0","23","0","37.8366158846163","50","Fri Aug  9 13:39:12 2024","20","The main experiment item","False","3884.000062942505","155760","pygame-experiment-visual-world-paradigm.osexp","C:\Users\yarbus\Desktop\Team Cat\visual-word-paradigm","black","0","0","medium-open","1000","False","mono","False","32","no","black","no","yes","1080","21","Look at the screen and listen carefully. press any key to continue","True","mono","black","32","None","None","w","legacy","1","wolf","23","23","park","C:/Users/yarbus/Desktop/Team Cat/visual-word-paradigm/trials/subject-5.csv","2000","legacy","Melodramatic Milgram","4.0.13","False","mono","black","32","None","380","Pause. Look at the fixation dot in order to continue.","30000","-480","480","-480","480","270","270","-270","-270","1000","0","2","legacy","At the park, the girl flew a kite.","500","1024","2","3.384000062942505","48000","-16","C:\Users\yarbus\AppData\Local\Temp\tmp7mkjzt09.opensesame_pool\21_kite.ogg","cake","pool","blood","kite","cake","pool","blood","kite","experiment","kite","5","odd","2440","TR","376985.0","C:\Users\yarbus\Desktop\Team Cat\visual-word-paradigm\temp","6152","150893","370852","391","370852","668","150893","370793","378985","NA","376946","645","371891","370825","370597","NA","372962","155761","370815","438","experiment-visual-word-paradigm","378985.0","flew","1354","wolf.mp4","1920"
"64_cats.ogg","white","legacy","True","C:\Users\yarbus\Desktop\Team Cat\visual-word-paradigm\temp","legacy","legacy","motion","C:\Users\yarbus\Desktop\Team Cat\visual-word-paradigm\config.yml","0","0","24","0","24","0","0","24","24","0","24","0","24","24","24","0","24","0","24","0","30.11632003017626","50","Fri Aug  9 13:39:12 2024","20","The main experiment item","False","4676.000118255615","155760","pygame-experiment-visual-world-paradigm.osexp","C:\Users\yarbus\Desktop\Team Cat\visual-word-paradigm","black","0","0","medium-open","1000","False","mono","False","32","no","black","no","yes","1080","64","Look at the screen and listen carefully. press any key to continue","True","mono","black","32","None","None","w","legacy","1","wolf","24","24","pet store","C:/Users/yarbus/Desktop/Team Cat/visual-word-paradigm/trials/subject-5.csv","2000","legacy","Melodramatic Milgram","4.0.13","False","mono","black","32","None","380","Pause. Look at the fixation dot in order to continue.","30000","-480","480","-480","480","270","270","-270","-270","1000","0","2","legacy","At the pet store, the girl cuddled with adorable cats.","500","1024","2","4.176000118255615","48000","-16","C:\Users\yarbus\AppData\Local\Temp\tmp7mkjzt09.opensesame_pool\64_cats.ogg","battery","cats","paperairplane","ceilingfan","battery","cats","paperairplane","ceilingfan","experiment","cats","5","odd","3384","BR","386306.0","C:\Users\yarbus\Desktop\Team Cat\visual-word-paradigm\temp","6152","150893","379237","391","379237","668","150893","379168","388306","NA","386262","645","380267","379204","378986","NA","381454","155761","379191","438","experiment-visual-word-paradigm","388306.0","cuddled","1510","wolf.mp4","1920"
"51_beer.ogg","white","legacy","True","C:\Users\yarbus\Desktop\Team Cat\visual-word-paradigm\temp","legacy","legacy","motion","C:\Users\yarbus\Desktop\Team Cat\visual-word-paradigm\config.yml","0","0","25","0","25","0","0","25","25","0","25","0","25","25","25","0","25","0","25","0","16.777551344579408","50","Fri Aug  9 13:39:12 2024","20","The main experiment item","False","3308.000087738037","155760","pygame-experiment-visual-world-paradigm.osexp","C:\Users\yarbus\Desktop\Team Cat\visual-word-paradigm","black","0","0","medium-open","1000","False","mono","False","32","no","black","no","yes","1080","51","Look at the screen and listen carefully. press any key to continue","True","mono","black","32","None","None","w","legacy","1","wolf","25","25","bar","C:/Users/yarbus/Desktop/Team Cat/visual-word-paradigm/trials/subject-5.csv","2000","legacy","Melodramatic Milgram","4.0.13","False","mono","black","32","None","380","Pause. Look at the fixation dot in order to continue.","30000","-480","480","-480","480","270","270","-270","-270","1000","0","2","legacy","In the bar, the girl drank beer. ","500","1024","2","2.808000087738037","48000","-16","C:\Users\yarbus\AppData\Local\Temp\tmp7mkjzt09.opensesame_pool\51_beer.ogg","treadmill","beer","bathtub","plants","treadmill","beer","bathtub","plants","experiment","beer","5","odd","2090","BR","394162.0","C:\Users\yarbus\Desktop\Team Cat\visual-word-paradigm\temp","6152","150893","388556","391","388556","668","150893","388494","396162","NA","394115","645","389601","388522","388311","NA","390680","155761","388520","438","experiment-visual-word-paradigm","396162.0","drank","1585","wolf.mp4","1920"
"23_novel.ogg","white","legacy","True","C:\Users\yarbus\Desktop\Team Cat\visual-word-paradigm\temp","legacy","legacy","static","C:\Users\yarbus\Desktop\Team Cat\visual-word-paradigm\config.yml","0","0","26","0","26","0","0","26","26","0","26","0","26","26","26","0","26","0","26","0","43.797521436720636","50","Fri Aug  9 13:39:12 2024","20","The main experiment item","False","3523.9999294281006","155760","pygame-experiment-visual-world-paradigm.osexp","C:\Users\yarbus\Desktop\Team Cat\visual-word-paradigm","black","0","0","medium-open","1000","False","mono","False","32","no","black","no","yes","1080","23","Look at the screen and listen carefully. press any key to continue","True","mono","black","32","None","None","w","legacy","1","wolf","26","26","library","C:/Users/yarbus/Desktop/Team Cat/visual-word-paradigm/trials/subject-5.csv","2000","legacy","Melodramatic Milgram","4.0.13","False","mono","black","32","None","380","Pause. Look at the fixation dot in order to continue.","30000","-480","480","-480","480","270","270","-270","-270","1000","0","2","legacy","In the library, the girl read a novel.","500","1024","2","3.0239999294281006","48000","-16","C:\Users\yarbus\AppData\Local\Temp\tmp7mkjzt09.opensesame_pool\23_novel.ogg","guitar","bracelet","marshmallow","novel","guitar","bracelet","marshmallow","novel","experiment","novel","5","odd","2220","TR","402155.0","C:\Users\yarbus\Desktop\Team Cat\visual-word-paradigm\temp","6152","150893","396414","391","396414","668","150893","396349","406869","NA","402102","645","397456","396384","396174","NA","398510","155761","396372","438","experiment-visual-word-paradigm","404155.0","read","1595","wolf.mp4","1920"
"09_cello.ogg","white","legacy","True","C:\Users\yarbus\Desktop\Team Cat\visual-word-paradigm\temp","legacy","legacy","static","C:\Users\yarbus\Desktop\Team Cat\visual-word-paradigm\config.yml","0","0","27","0","27","0","0","27","27","0","27","0","27","27","27","0","27","0","27","0","49.579317107035706","50","Fri Aug  9 13:39:12 2024","20","The main experiment item","False","4052.000045776367","155760","pygame-experiment-visual-world-paradigm.osexp","C:\Users\yarbus\Desktop\Team Cat\visual-word-paradigm","black","0","0","medium-open","1000","False","mono","False","32","no","black","no","yes","1080","9","Look at the screen and listen carefully. press any key to continue","True","mono","black","32","None","None","w","legacy","1","wolf","27","27","musical class","C:/Users/yarbus/Desktop/Team Cat/visual-word-paradigm/trials/subject-5.csv","2000","legacy","Melodramatic Milgram","4.0.13","False","mono","black","32","None","380","Pause. Look at the fixation dot in order to continue.","30000","-480","480","-480","480","270","270","-270","-270","1000","0","2","legacy","During musical class, the girl played the cello. ","500","1024","2","3.552000045776367","48000","-16","C:\Users\yarbus\AppData\Local\Temp\tmp7mkjzt09.opensesame_pool\09_cello.ogg","soccer","brick","cello","pencilsharpener","soccer","brick","cello","pencilsharpener","experiment","cello","5","odd","2260","TL","413746.0","C:\Users\yarbus\Desktop\Team Cat\visual-word-paradigm\temp","6152","150893","407457","391","407457","668","150893","407357","415746","NA","413691","645","408507","407388","406880","NA","409575","155761","407380","438","experiment-visual-word-paradigm","415746.0","played","1856","wolf.mp4","1920"
"02_horse.ogg","white","legacy","True","C:\Users\yarbus\Desktop\Team Cat\visual-word-paradigm\temp","legacy","legacy","static","C:\Users\yarbus\Desktop\Team Cat\visual-word-paradigm\config.yml","0","0","28","0","28","0","0","28","28","0","28","0","28","28","28","0","28","0","28","0","18.128430144940804","50","Fri Aug  9 13:39:12 2024","20","The main experiment item","False","3931.999921798706","155760","pygame-experiment-visual-world-paradigm.osexp","C:\Users\yarbus\Desktop\Team Cat\visual-word-paradigm","black","0","0","medium-open","1000","False","mono","False","32","no","black","no","yes","1080","2","Look at the screen and listen carefully. press any key to continue","True","mono","black","32","None","None","w","legacy","1","wolf","28","28","countryside","C:/Users/yarbus/Desktop/Team Cat/visual-word-paradigm/trials/subject-5.csv","2000","legacy","Melodramatic Milgram","4.0.13","False","mono","black","32","None","380","Pause. Look at the fixation dot in order to continue.","30000","-480","480","-480","480","270","270","-270","-270","1000","0","2","legacy","In the countryside, the girl rode a horse.","500","1024","2","3.431999921798706","48000","-16","C:\Users\yarbus\AppData\Local\Temp\tmp7mkjzt09.opensesame_pool\02_horse.ogg","paperclip","oven","horse","novel","paperclip","oven","horse","novel","experiment","horse","5","odd","2600","TL","422133.0","C:\Users\yarbus\Desktop\Team Cat\visual-word-paradigm\temp","6152","150893","415997","391","415997","668","150893","415935","424133","NA","422061","645","417033","415968","415758","NA","418073","155761","415961","438","experiment-visual-word-paradigm","424133.0","rode","1655","wolf.mp4","1920"
"56_marshmallows.ogg","white","legacy","True","C:\Users\yarbus\Desktop\Team Cat\visual-word-paradigm\temp","legacy","legacy","motion","C:\Users\yarbus\Desktop\Team Cat\visual-word-paradigm\config.yml","0","0","29","0","29","0","0","29","29","0","29","0","29","29","29","0","29","0","29","0","6.397652882112323","50","Fri Aug  9 13:39:12 2024","20","The main experiment item","False","4507.999897003174","155760","pygame-experiment-visual-world-paradigm.osexp","C:\Users\yarbus\Desktop\Team Cat\visual-word-paradigm","black","0","0","medium-open","1000","False","mono","False","32","no","black","no","yes","1080","56","Look at the screen and listen carefully. press any key to continue","True","mono","black","32","None","None","w","legacy","1","wolf","29","29","campfire","C:/Users/yarbus/Desktop/Team Cat/visual-word-paradigm/trials/subject-5.csv","2000","legacy","Melodramatic Milgram","4.0.13","False","mono","black","32","None","380","Pause. Look at the fixation dot in order to continue.","30000","-480","480","-480","480","270","270","-270","-270","1000","0","2","legacy","At the campfire, the girl roasted marshmallows.","500","1024","2","4.007999897003174","48000","-16","C:\Users\yarbus\AppData\Local\Temp\tmp7mkjzt09.opensesame_pool\56_marshmallows.ogg","card","marshmallow","dice","mouse","card","marshmallow","dice","mouse","experiment","marshmallow","5","odd","2892","BR","431258.0","C:\Users\yarbus\Desktop\Team Cat\visual-word-paradigm\temp","6152","150893","424417","391","424417","668","150893","424342","433258","NA","431212","645","425455","424377","424145","NA","426569","155761","424366","438","experiment-visual-word-paradigm","433258.0","roasted","2167","wolf.mp4","1920"
"62_mathproblems.ogg","white","legacy","True","C:\Users\yarbus\Desktop\Team Cat\visual-word-paradigm\temp","legacy","legacy","motion","C:\Users\yarbus\Desktop\Team Cat\visual-word-paradigm\config.yml","0","0","30","0","30","0","0","30","30","0","30","0","30","30","30","0","30","0","30","0","26.736386738674945","50","Fri Aug  9 13:39:12 2024","20","The main experiment item","False","4196.000099182129","155760","pygame-experiment-visual-world-paradigm.osexp","C:\Users\yarbus\Desktop\Team Cat\visual-word-paradigm","black","0","0","medium-open","1000","False","mono","False","32","no","black","no","yes","1080","62","Look at the screen and listen carefully. press any key to continue","True","mono","black","32","None","None","w","legacy","1","wolf","30","30","classroom","C:/Users/yarbus/Desktop/Team Cat/visual-word-paradigm/trials/subject-5.csv","2000","legacy","Melodramatic Milgram","4.0.13","False","mono","black","32","None","380","Pause. Look at the fixation dot in order to continue.","30000","-480","480","-480","480","270","270","-270","-270","1000","0","2","legacy","In the classroom, the girl solved math problems.","500","1024","2","3.696000099182129","48000","-16","C:\Users\yarbus\AppData\Local\Temp\tmp7mkjzt09.opensesame_pool\62_mathproblems.ogg","kite","math","bear","cookie","kite","math","bear","cookie","experiment","math","5","odd","2397","BR","440012.0","C:\Users\yarbus\Desktop\Team Cat\visual-word-paradigm\temp","6152","150893","433532","391","433532","668","150893","433463","442012","NA","439964","645","434568","433493","433270","NA","435670","155761","433486","438","experiment-visual-word-paradigm","442012.0","solved","1801","wolf.mp4","1920"
"18_armchair.ogg","white","legacy","True","C:\Users\yarbus\Desktop\Team Cat\visual-word-paradigm\temp","legacy","legacy","static","C:\Users\yarbus\Desktop\Team Cat\visual-word-paradigm\config.yml","0","0","31","0","31","0","0","31","31","0","31","0","31","31","31","0","31","0","31","0","39.299096197240935","50","Fri Aug  9 13:39:12 2024","20","The main experiment item","False","3788.0001068115234","155760","pygame-experiment-visual-world-paradigm.osexp","C:\Users\yarbus\Desktop\Team Cat\visual-word-paradigm","black","0","0","medium-open","1000","False","mono","False","32","no","black","no","yes","1080","18","Look at the screen and listen carefully. press any key to continue","True","mono","black","32","None","None","w","legacy","1","wolf","31","31","living room","C:/Users/yarbus/Desktop/Team Cat/visual-word-paradigm/trials/subject-5.csv","2000","legacy","Melodramatic Milgram","4.0.13","False","mono","black","32","None","380","Pause. Look at the fixation dot in order to continue.","30000","-480","480","-480","480","270","270","-270","-270","1000","0","2","legacy","In the living room, the girl sat in an armchair.","500","1024","2","3.2880001068115234","48000","-16","C:\Users\yarbus\AppData\Local\Temp\tmp7mkjzt09.opensesame_pool\18_armchair.ogg","wolf","battleship","frisbee","armchair","wolf","battleship","frisbee","armchair","experiment","armchair","5","odd","2048","TR","448280.0","C:\Users\yarbus\Desktop\Team Cat\visual-word-paradigm\temp","6152","150893","442283","391","442283","668","150893","442215","450512","NA","448227","645","443324","442249","442025","NA","444375","155761","442241","438","experiment-visual-word-paradigm","450280.0","sat","1290","wolf.mp4","1920"
"39_clothes.ogg","white","legacy","True","C:\Users\yarbus\Desktop\Team Cat\visual-word-paradigm\temp","legacy","legacy","motion","C:\Users\yarbus\Desktop\Team Cat\visual-word-paradigm\config.yml","0","0","32","0","32","0","0","32","32","0","32","0","32","32","32","0","32","0","32","0","13.087835524638875","50","Fri Aug  9 13:39:12 2024","20","The main experiment item","False","4243.99995803833","155760","pygame-experiment-visual-world-paradigm.osexp","C:\Users\yarbus\Desktop\Team Cat\visual-word-paradigm","black","0","0","medium-open","1000","False","mono","False","32","no","black","no","yes","1080","39","Look at the screen and listen carefully. press any key to continue","True","mono","black","32","None","None","w","legacy","1","wolf","32","32","laundromat","C:/Users/yarbus/Desktop/Team Cat/visual-word-paradigm/trials/subject-5.csv","2000","legacy","Melodramatic Milgram","4.0.13","False","mono","black","32","None","380","Pause. Look at the fixation dot in order to continue.","30000","-480","480","-480","480","270","270","-270","-270","1000","0","2","legacy","At the laundromat, the girl washed her clothes.","500","1024","2","3.74399995803833","48000","-16","C:\Users\yarbus\AppData\Local\Temp\tmp7mkjzt09.opensesame_pool\39_clothes.ogg","clothes","bookshelf","horse","armchair","clothes","bookshelf","horse","armchair","experiment","clothes","5","odd","2812","BL","457357.0","C:\Users\yarbus\Desktop\Team Cat\visual-word-paradigm\temp","6152","150893","450827","391","450827","668","150893","450761","462878","NA","457324","645","451869","450789","450523","NA","453004","155761","450784","438","experiment-visual-word-paradigm","459357.0","washed","2027","wolf.mp4","1920"
"54_cd.ogg","white","legacy","True","C:\Users\yarbus\Desktop\Team Cat\visual-word-paradigm\temp","legacy","legacy","motion","C:\Users\yarbus\Desktop\Team Cat\visual-word-paradigm\config.yml","0","0","33","0","33","0","0","33","33","0","33","0","33","33","33","0","33","0","33","0","46.270513809120374","50","Fri Aug  9 13:39:12 2024","20","The main experiment item","False","4099.999904632568","155760","pygame-experiment-visual-world-paradigm.osexp","C:\Users\yarbus\Desktop\Team Cat\visual-word-paradigm","black","0","0","medium-open","1000","False","mono","False","32","no","black","no","yes","1080","54","Look at the screen and listen carefully. press any key to continue","True","mono","black","32","None","None","w","legacy","1","wolf","33","33","car","C:/Users/yarbus/Desktop/Team Cat/visual-word-paradigm/trials/subject-5.csv","2000","legacy","Melodramatic Milgram","4.0.13","False","mono","black","32","None","380","Pause. Look at the fixation dot in order to continue.","30000","-480","480","-480","480","270","270","-270","-270","1000","0","2","legacy","In the car, the girl listened to a CD.","500","1024","2","3.5999999046325684","48000","-16","C:\Users\yarbus\AppData\Local\Temp\tmp7mkjzt09.opensesame_pool\54_cd.ogg","moon","cd","ceilingfan","brick","moon","cd","ceilingfan","brick","experiment","cd","5","odd","2643","BR","469885.0","C:\Users\yarbus\Desktop\Team Cat\visual-word-paradigm\temp","6152","150893","463537","391","463537","668","150893","463406","471885","NA","469844","645","464577","463459","462890","NA","465663","155761","463433","438","experiment-visual-word-paradigm","471885.0","listened","1529","wolf.mp4","1920"
"32_flowers.ogg","white","legacy","True","C:\Users\yarbus\Desktop\Team Cat\visual-word-paradigm\temp","legacy","legacy","static","C:\Users\yarbus\Desktop\Team Cat\visual-word-paradigm\config.yml","0","0","34","0","34","0","0","34","34","0","34","0","34","34","34","0","34","0","34","0","34.50085140514645","50","Fri Aug  9 13:39:12 2024","20","The main experiment item","False","3691.999912261963","155760","pygame-experiment-visual-world-paradigm.osexp","C:\Users\yarbus\Desktop\Team Cat\visual-word-paradigm","black","0","0","medium-open","1000","False","mono","False","32","no","black","no","yes","1080","32","Look at the screen and listen carefully. press any key to continue","True","mono","black","32","None","None","w","legacy","1","wolf","34","34","garden","C:/Users/yarbus/Desktop/Team Cat/visual-word-paradigm/trials/subject-5.csv","2000","legacy","Melodramatic Milgram","4.0.13","False","mono","black","32","None","380","Pause. Look at the fixation dot in order to continue.","30000","-480","480","-480","480","270","270","-270","-270","1000","0","2","legacy","In the garden, the girl planted flowers.","500","1024","2","3.191999912261963","48000","-16","C:\Users\yarbus\AppData\Local\Temp\tmp7mkjzt09.opensesame_pool\32_flowers.ogg","nailclipper","beer","baggage","flowers","nailclipper","beer","baggage","flowers","experiment","flowers","5","odd","2155","TR","478041.0","C:\Users\yarbus\Desktop\Team Cat\visual-word-paradigm\temp","6152","150893","472150","391","472150","668","150893","472083","480041","NA","478000","645","473196","472118","471897","NA","474253","155761","472110","438","experiment-visual-word-paradigm","480041.0","planted","1771","wolf.mp4","1920"
"27_treadmill.ogg","white","legacy","True","C:\Users\yarbus\Desktop\Team Cat\visual-word-paradigm\temp","legacy","legacy","static","C:\Users\yarbus\Desktop\Team Cat\visual-word-paradigm\config.yml","0","0","35","0","35","0","0","35","35","0","35","0","35","35","35","0","35","0","35","0","31.659997890082114","50","Fri Aug  9 13:39:12 2024","20","The main experiment item","False","4339.9999141693115","155760","pygame-experiment-visual-world-paradigm.osexp","C:\Users\yarbus\Desktop\Team Cat\visual-word-paradigm","black","0","0","medium-open","1000","False","mono","False","32","no","black","no","yes","1080","27","Look at the screen and listen carefully. press any key to continue","True","mono","black","32","None","None","w","legacy","1","wolf","35","35","gym","C:/Users/yarbus/Desktop/Team Cat/visual-word-paradigm/trials/subject-5.csv","2000","legacy","Melodramatic Milgram","4.0.13","False","mono","black","32","None","380","Pause. Look at the fixation dot in order to continue.","30000","-480","480","-480","480","270","270","-270","-270","1000","0","2","legacy","At the gym, the girl ran on the treadmill.","500","1024","2","3.8399999141693115","48000","-16","C:\Users\yarbus\AppData\Local\Temp\tmp7mkjzt09.opensesame_pool\27_treadmill.ogg","oven","duck","belt","treadmill","oven","duck","belt","treadmill","experiment","treadmill","5","odd","2689","TR","486850.0","C:\Users\yarbus\Desktop\Team Cat\visual-word-paradigm\temp","6152","150893","480322","391","480322","668","150893","480258","488850","NA","486809","645","481361","480291","480053","NA","482418","155761","480281","438","experiment-visual-word-paradigm","488850.0","ran","1849","wolf.mp4","1920"
"50_cactus.ogg","white","legacy","True","C:\Users\yarbus\Desktop\Team Cat\visual-word-paradigm\temp","legacy","legacy","motion","C:\Users\yarbus\Desktop\Team Cat\visual-word-paradigm\config.yml","0","0","36","0","36","0","0","36","36","0","36","0","36","36","36","0","36","0","36","0","20.38045269369645","50","Fri Aug  9 13:39:12 2024","20","The main experiment item","False","5179.999828338623","155760","pygame-experiment-visual-world-paradigm.osexp","C:\Users\yarbus\Desktop\Team Cat\visual-word-paradigm","black","0","0","medium-open","1000","False","mono","False","32","no","black","no","yes","1080","50","Look at the screen and listen carefully. press any key to continue","True","mono","black","32","None","None","w","legacy","1","wolf","36","36","botanical garden","C:/Users/yarbus/Desktop/Team Cat/visual-word-paradigm/trials/subject-5.csv","2000","legacy","Melodramatic Milgram","4.0.13","False","mono","black","32","None","380","Pause. Look at the fixation dot in order to continue.","30000","-480","480","-480","480","270","270","-270","-270","1000","0","2","legacy","In the botanical garden, the girl got stung by a cactus.","500","1024","2","4.679999828338623","48000","-16","C:\Users\yarbus\AppData\Local\Temp\tmp7mkjzt09.opensesame_pool\50_cactus.ogg","card","cactus","bear","pacifier","card","cactus","bear","pacifier","experiment","cactus","5","odd","3287","BR","496646.0","C:\Users\yarbus\Desktop\Team Cat\visual-word-paradigm\temp","6152","150893","489134","391","489134","668","150893","489061","498646","NA","496592","645","490186","489098","488862","NA","491279","155761","489084","438","experiment-visual-word-paradigm","498646.0","stung","2326","wolf.mp4","1920"
"24_cake.ogg","white","legacy","True","C:\Users\yarbus\Desktop\Team Cat\visual-word-paradigm\temp","legacy","legacy","static","C:\Users\yarbus\Desktop\Team Cat\visual-word-paradigm\config.yml","0","0","37","0","37","0","0","37","37","0","37","0","37","37","37","0","37","0","37","0","31.702023821832004","50","Fri Aug  9 13:39:12 2024","20","The main experiment item","False","3548.0000972747803","155760","pygame-experiment-visual-world-paradigm.osexp","C:\Users\yarbus\Desktop\Team Cat\visual-word-paradigm","black","0","0","medium-open","1000","False","mono","False","32","no","black","no","yes","1080","24","Look at the screen and listen carefully. press any key to continue","True","mono","black","32","None","None","w","legacy","1","wolf","37","37","kitchen","C:/Users/yarbus/Desktop/Team Cat/visual-word-paradigm/trials/subject-5.csv","2000","legacy","Melodramatic Milgram","4.0.13","False","mono","black","32","None","380","Pause. Look at the fixation dot in order to continue.","30000","-480","480","-480","480","270","270","-270","-270","1000","0","2","legacy","In the kitchen, the girl baked a cake.","500","1024","2","3.0480000972747803","48000","-16","C:\Users\yarbus\AppData\Local\Temp\tmp7mkjzt09.opensesame_pool\24_cake.ogg","button","cello","seashells","cake","button","cello","seashells","cake","experiment","cake","5","odd","2253","TR","504684.0","C:\Users\yarbus\Desktop\Team Cat\visual-word-paradigm\temp","6152","150893","498904","391","498904","668","150893","498845","513736","NA","504632","645","499951","498873","498659","NA","501033","155761","498871","438","experiment-visual-word-paradigm","506684.0","baked","1409","wolf.mp4","1920"
"20_seashells.ogg","white","legacy","True","C:\Users\yarbus\Desktop\Team Cat\visual-word-paradigm\temp","legacy","legacy","static","C:\Users\yarbus\Desktop\Team Cat\visual-word-paradigm\config.yml","0","0","38","0","38","0","0","38","38","0","38","0","38","38","38","0","38","0","38","0","48.558092524315676","50","Fri Aug  9 13:39:12 2024","20","The main experiment item","False","3980.0000190734863","155760","pygame-experiment-visual-world-paradigm.osexp","C:\Users\yarbus\Desktop\Team Cat\visual-word-paradigm","black","0","0","medium-open","1000","False","mono","False","32","no","black","no","yes","1080","20","Look at the screen and listen carefully. press any key to continue","True","mono","black","32","None","None","w","legacy","1","wolf","38","38","beach","C:/Users/yarbus/Desktop/Team Cat/visual-word-paradigm/trials/subject-5.csv","2000","legacy","Melodramatic Milgram","4.0.13","False","mono","black","32","None","380","Pause. Look at the fixation dot in order to continue.","30000","-480","480","-480","480","270","270","-270","-270","1000","0","2","legacy","At the beach, the girl collected seashells.","500","1024","2","3.4800000190734863","48000","-16","C:\Users\yarbus\AppData\Local\Temp\tmp7mkjzt09.opensesame_pool\20_seashells.ogg","documents","basketballhoop","apple","seashells","documents","basketballhoop","apple","seashells","experiment","seashells","5","odd","2070","TR","521019.0","C:\Users\yarbus\Desktop\Team Cat\visual-word-paradigm\temp","6152","150893","514825","391","514825","668","150893","514639","523041","NA","520979","645","515878","514671","513749","NA","516945","155761","514662","438","experiment-visual-word-paradigm","523019.0","built","1300","wolf.mp4","1920"
"25_dishes.ogg","white","legacy","True","C:\Users\yarbus\Desktop\Team Cat\visual-word-paradigm\temp","legacy","legacy","static","C:\Users\yarbus\Desktop\Team Cat\visual-word-paradigm\config.yml","0","0","39","0","39","0","0","39","39","0","39","0","39","39","39","0","39","0","39","0","15.347153315191674","50","Fri Aug  9 13:39:12 2024","20","The main experiment item","False","3691.999912261963","155760","pygame-experiment-visual-world-paradigm.osexp","C:\Users\yarbus\Desktop\Team Cat\visual-word-paradigm","black","0","0","medium-open","1000","False","mono","False","32","no","black","no","yes","1080","25","Look at the screen and listen carefully. press any key to continue","True","mono","black","32","None","None","w","legacy","1","wolf","39","39","kitchen","C:/Users/yarbus/Desktop/Team Cat/visual-word-paradigm/trials/subject-5.csv","2000","legacy","Melodramatic Milgram","4.0.13","False","mono","black","32","None","380","Pause. Look at the fixation dot in order to continue.","30000","-480","480","-480","480","270","270","-270","-270","1000","0","2","legacy","In the kitchen, the girl washed dishes.","500","1024","2","3.191999912261963","48000","-16","C:\Users\yarbus\AppData\Local\Temp\tmp7mkjzt09.opensesame_pool\25_dishes.ogg","pacifier","seashells","cigarette","dishes","pacifier","seashells","cigarette","dishes","experiment","dishes","5","odd","2151","TR","529222.0","C:\Users\yarbus\Desktop\Team Cat\visual-word-paradigm\temp","6152","150893","523305","391","523305","668","150893","523233","531222","NA","529179","645","524372","523265","523055","NA","525440","155761","523255","438","experiment-visual-word-paradigm","531222.0","washed","1440","wolf.mp4","1920"
"03_sandwich.ogg","white","legacy","True","C:\Users\yarbus\Desktop\Team Cat\visual-word-paradigm\temp","legacy","legacy","static","C:\Users\yarbus\Desktop\Team Cat\visual-word-paradigm\config.yml","0","0","40","0","40","0","0","40","40","0","40","0","40","40","40","0","40","0","40","0","17.92186304601175","50","Fri Aug  9 13:39:12 2024","20","The main experiment item","False","4099.999904632568","155760","pygame-experiment-visual-world-paradigm.osexp","C:\Users\yarbus\Desktop\Team Cat\visual-word-paradigm","black","0","0","medium-open","1000","False","mono","False","32","no","black","no","yes","1080","3","Look at the screen and listen carefully. press any key to continue","True","mono","black","32","None","None","w","legacy","1","wolf","40","40","dinner time","C:/Users/yarbus/Desktop/Team Cat/visual-word-paradigm/trials/subject-5.csv","2000","legacy","Melodramatic Milgram","4.0.13","False","mono","black","32","None","380","Pause. Look at the fixation dot in order to continue.","30000","-480","480","-480","480","270","270","-270","-270","1000","0","2","legacy","At dinner time, the girl ate a sandwich.","500","1024","2","3.5999999046325684","48000","-16","C:\Users\yarbus\AppData\Local\Temp\tmp7mkjzt09.opensesame_pool\03_sandwich.ogg","bulldozer","belt","sandwich","patioumbrella","bulldozer","belt","sandwich","patioumbrella","experiment","sandwich","5","odd","2711","TL","537782.0","C:\Users\yarbus\Desktop\Team Cat\visual-word-paradigm\temp","6152","150893","531474","391","531475","668","150893","531403","539782","NA","537733","645","532520","531438","531223","NA","533578","155761","531429","438","experiment-visual-word-paradigm","539782.0","ate","2287","wolf.mp4","1920"
"59_documents.ogg","white","legacy","True","C:\Users\yarbus\Desktop\Team Cat\visual-word-paradigm\temp","legacy","legacy","motion","C:\Users\yarbus\Desktop\Team Cat\visual-word-paradigm\config.yml","0","0","41","0","41","0","0","41","41","0","41","0","41","41","41","0","41","0","41","0","44.601413403613066","50","Fri Aug  9 13:39:12 2024","20","The main experiment item","False","4243.99995803833","155760","pygame-experiment-visual-world-paradigm.osexp","C:\Users\yarbus\Desktop\Team Cat\visual-word-paradigm","black","0","0","medium-open","1000","False","mono","False","32","no","black","no","yes","1080","59","Look at the screen and listen carefully. press any key to continue","True","mono","black","32","None","None","w","legacy","1","wolf","41","41","office","C:/Users/yarbus/Desktop/Team Cat/visual-word-paradigm/trials/subject-5.csv","2000","legacy","Melodramatic Milgram","4.0.13","False","mono","black","32","None","380","Pause. Look at the fixation dot in order to continue.","30000","-480","480","-480","480","270","270","-270","-270","1000","0","2","legacy","In the office, the girl printed documents. ","500","1024","2","3.74399995803833","48000","-16","C:\Users\yarbus\AppData\Local\Temp\tmp7mkjzt09.opensesame_pool\59_documents.ogg","brainmodel","documents","weights","fishing","brainmodel","documents","weights","fishing","experiment","documents","5","odd","2487","BR","546614.0","C:\Users\yarbus\Desktop\Team Cat\visual-word-paradigm\temp","6152","150893","540058","391","540058","668","150893","539989","548664","NA","546570","645","541103","540019","539785","NA","542209","155761","540012","438","experiment-visual-word-paradigm","548614.0","printed","1575","wolf.mp4","1920"
"14_card.ogg","white","legacy","True","C:\Users\yarbus\Desktop\Team Cat\visual-word-paradigm\temp","legacy","legacy","static","C:\Users\yarbus\Desktop\Team Cat\visual-word-paradigm\config.yml","0","0","42","0","42","0","0","42","42","0","42","0","42","42","42","0","42","0","42","0","11.452708465686223","50","Fri Aug  9 13:39:12 2024","20","The main experiment item","False","4075.999975204468","155760","pygame-experiment-visual-world-paradigm.osexp","C:\Users\yarbus\Desktop\Team Cat\visual-word-paradigm","black","0","0","medium-open","1000","False","mono","False","32","no","black","no","yes","1080","14","Look at the screen and listen carefully. press any key to continue","True","mono","black","32","None","None","w","legacy","1","wolf","42","42","casino","C:/Users/yarbus/Desktop/Team Cat/visual-word-paradigm/trials/subject-5.csv","2000","legacy","Melodramatic Milgram","4.0.13","False","mono","black","32","None","380","Pause. Look at the fixation dot in order to continue.","30000","-480","480","-480","480","270","270","-270","-270","1000","0","2","legacy","At the casino, the girl picked a card. ","500","1024","2","3.5759999752044678","48000","-16","C:\Users\yarbus\AppData\Local\Temp\tmp7mkjzt09.opensesame_pool\14_card.ogg","vegetables","sandcastle","card","parkfountain","vegetables","sandcastle","card","parkfountain","experiment","card","5","odd","2672","TL","555215.0","C:\Users\yarbus\Desktop\Team Cat\visual-word-paradigm\temp","6152","150893","548933","391","548933","668","150893","548871","557215","NA","555171","645","549967","548902","548666","NA","551033","155761","548894","438","experiment-visual-word-paradigm","557215.0","picked","2075","wolf.mp4","1920"
"04_banana.ogg","white","legacy","True","C:\Users\yarbus\Desktop\Team Cat\visual-word-paradigm\temp","legacy","legacy","static","C:\Users\yarbus\Desktop\Team Cat\visual-word-paradigm\config.yml","0","0","43","0","43","0","0","43","43","0","43","0","43","43","43","0","43","0","43","0","29.12114072490978","50","Fri Aug  9 13:39:12 2024","20","The main experiment item","False","4003.999948501587","155760","pygame-experiment-visual-world-paradigm.osexp","C:\Users\yarbus\Desktop\Team Cat\visual-word-paradigm","black","0","0","medium-open","1000","False","mono","False","32","no","black","no","yes","1080","4","Look at the screen and listen carefully. press any key to continue","True","mono","black","32","None","None","w","legacy","1","wolf","43","43","breakfast","C:/Users/yarbus/Desktop/Team Cat/visual-word-paradigm/trials/subject-5.csv","2000","legacy","Melodramatic Milgram","4.0.13","False","mono","black","32","None","380","Pause. Look at the fixation dot in order to continue.","30000","-480","480","-480","480","270","270","-270","-270","1000","0","2","legacy","At breakfast, the girl ate a banana.","500","1024","2","3.503999948501587","48000","-16","C:\Users\yarbus\AppData\Local\Temp\tmp7mkjzt09.opensesame_pool\04_banana.ogg","pants","videogame","banana","clothes","pants","videogame","banana","clothes","experiment","banana","5","odd","2500","TL","563679.0","C:\Users\yarbus\Desktop\Team Cat\visual-word-paradigm\temp","6152","150893","557491","391","557491","668","150893","557405","565679","NA","563638","645","558533","557468","557217","NA","559586","155761","557439","438","experiment-visual-word-paradigm","565679.0","ate","1770","wolf.mp4","1920"
"16_mouse.ogg","white","legacy","True","C:\Users\yarbus\Desktop\Team Cat\visual-word-paradigm\temp","legacy","legacy","static","C:\Users\yarbus\Desktop\Team Cat\visual-word-paradigm\config.yml","0","0","44","0","44","0","0","44","44","0","44","0","44","44","44","0","44","0","44","0","39.499323386610065","50","Fri Aug  9 13:39:12 2024","20","The main experiment item","False","3740.000009536743","155760","pygame-experiment-visual-world-paradigm.osexp","C:\Users\yarbus\Desktop\Team Cat\visual-word-paradigm","black","0","0","medium-open","1000","False","mono","False","32","no","black","no","yes","1080","16","Look at the screen and listen carefully. press any key to continue","True","mono","black","32","None","None","w","legacy","1","wolf","44","44","desk","C:/Users/yarbus/Desktop/Team Cat/visual-word-paradigm/trials/subject-5.csv","2000","legacy","Melodramatic Milgram","4.0.13","False","mono","black","32","None","380","Pause. Look at the fixation dot in order to continue.","30000","-480","480","-480","480","270","270","-270","-270","1000","0","2","legacy","At her desk, the girl clicked the mouse. ","500","1024","2","3.240000009536743","48000","-16","C:\Users\yarbus\AppData\Local\Temp\tmp7mkjzt09.opensesame_pool\16_mouse.ogg","moon","button","mouse","ceilingfan","moon","button","mouse","ceilingfan","experiment","mouse","5","odd","2425","TL","571863.0","C:\Users\yarbus\Desktop\Team Cat\visual-word-paradigm\temp","6152","150893","565922","391","565922","668","150893","565869","574507","NA","571818","645","566964","565894","565681","NA","568018","155761","565892","438","experiment-visual-word-paradigm","573863.0","clicked","1427","wolf.mp4","1920"
"06_croissant.ogg","white","legacy","True","C:\Users\yarbus\Desktop\Team Cat\visual-word-paradigm\temp","legacy","legacy","static","C:\Users\yarbus\Desktop\Team Cat\visual-word-paradigm\config.yml","0","0","45","0","45","0","0","45","45","0","45","0","45","45","45","0","45","0","45","0","38.71958849368109","50","Fri Aug  9 13:39:12 2024","20","The main experiment item","False","4075.999975204468","155760","pygame-experiment-visual-world-paradigm.osexp","C:\Users\yarbus\Desktop\Team Cat\visual-word-paradigm","black","0","0","medium-open","1000","False","mono","False","32","no","black","no","yes","1080","6","Look at the screen and listen carefully. press any key to continue","True","mono","black","32","None","None","w","legacy","1","wolf","45","45","breakfast","C:/Users/yarbus/Desktop/Team Cat/visual-word-paradigm/trials/subject-5.csv","2000","legacy","Melodramatic Milgram","4.0.13","False","mono","black","32","None","380","Pause. Look at the fixation dot in order to continue.","30000","-480","480","-480","480","270","270","-270","-270","1000","0","2","legacy","At breakfast, the girl ate a croissant. ","500","1024","2","3.5759999752044678","48000","-16","C:\Users\yarbus\AppData\Local\Temp\tmp7mkjzt09.opensesame_pool\06_croissant.ogg","dance","makeup","croissant","duck","dance","makeup","croissant","duck","experiment","croissant","5","odd","2576","TL","581134.0","C:\Users\yarbus\Desktop\Team Cat\visual-word-paradigm\temp","6152","150893","574833","391","574833","668","150893","574759","583134","NA","581081","645","575872","574792","574520","NA","576935","155761","574782","438","experiment-visual-word-paradigm","583134.0","ate","1876","wolf.mp4","1920"
"43_car.ogg","white","legacy","True","C:\Users\yarbus\Desktop\Team Cat\visual-word-paradigm\temp","legacy","legacy","motion","C:\Users\yarbus\Desktop\Team Cat\visual-word-paradigm\config.yml","0","0","46","0","46","0","0","46","46","0","46","0","46","46","46","0","46","0","46","0","17.919347349722294","50","Fri Aug  9 13:39:12 2024","20","The main experiment item","False","3956.0000896453857","155760","pygame-experiment-visual-world-paradigm.osexp","C:\Users\yarbus\Desktop\Team Cat\visual-word-paradigm","black","0","0","medium-open","1000","False","mono","False","32","no","black","no","yes","1080","43","Look at the screen and listen carefully. press any key to continue","True","mono","black","32","None","None","w","legacy","1","wolf","46","46","garage","C:/Users/yarbus/Desktop/Team Cat/visual-word-paradigm/trials/subject-5.csv","2000","legacy","Melodramatic Milgram","4.0.13","False","mono","black","32","None","380","Pause. Look at the fixation dot in order to continue.","30000","-480","480","-480","480","270","270","-270","-270","1000","0","2","legacy","In the garage, the girl washed her car.","500","1024","2","3.4560000896453857","48000","-16","C:\Users\yarbus\AppData\Local\Temp\tmp7mkjzt09.opensesame_pool\43_car.ogg","car","cd","brainmodel","bear","car","cd","brainmodel","bear","experiment","car","5","odd","2227","BL","589758.0","C:\Users\yarbus\Desktop\Team Cat\visual-word-paradigm\temp","6152","150893","583373","391","583373","668","150893","583311","591758","NA","589691","645","584414","583343","583147","NA","585565","155761","583337","438","experiment-visual-word-paradigm","591758.0","washed","1398","wolf.mp4","1920"
"28_rollercoaster.ogg","white","legacy","True","C:\Users\yarbus\Desktop\Team Cat\visual-word-paradigm\temp","legacy","legacy","static","C:\Users\yarbus\Desktop\Team Cat\visual-word-paradigm\config.yml","0","0","47","0","47","0","0","47","47","0","47","0","47","47","47","0","47","0","47","0","37.39692113958047","50","Fri Aug  9 13:39:12 2024","20","The main experiment item","False","4292.00005531311","155760","pygame-experiment-visual-world-paradigm.osexp","C:\Users\yarbus\Desktop\Team Cat\visual-word-paradigm","black","0","0","medium-open","1000","False","mono","False","32","no","black","no","yes","1080","28","Look at the screen and listen carefully. press any key to continue","True","mono","black","32","None","None","w","legacy","1","wolf","47","47","carnival","C:/Users/yarbus/Desktop/Team Cat/visual-word-paradigm/trials/subject-5.csv","2000","legacy","Melodramatic Milgram","4.0.13","False","mono","black","32","None","380","Pause. Look at the fixation dot in order to continue.","30000","-480","480","-480","480","270","270","-270","-270","1000","0","2","legacy","At the carnival, the girl rode a roller coaster.","500","1024","2","3.7920000553131104","48000","-16","C:\Users\yarbus\AppData\Local\Temp\tmp7mkjzt09.opensesame_pool\28_rollercoaster.ogg","picnic","bust","videogame","rollercoaster","picnic","bust","videogame","rollercoaster","experiment","rollercoaster","5","odd","2229","TR","598521.0","C:\Users\yarbus\Desktop\Team Cat\visual-word-paradigm\temp","6152","150893","592020","391","592020","668","150893","591951","600521","NA","598477","645","593066","591984","591774","NA","594121","155761","591974","438","experiment-visual-word-paradigm","600521.0","rode","1651","wolf.mp4","1920"
"07_clothes.ogg","white","legacy","True","C:\Users\yarbus\Desktop\Team Cat\visual-word-paradigm\temp","legacy","legacy","static","C:\Users\yarbus\Desktop\Team Cat\visual-word-paradigm\config.yml","0","0","48","0","48","0","0","48","48","0","48","0","48","48","48","0","48","0","48","0","13.932520920493939","50","Fri Aug  9 13:39:12 2024","20","The main experiment item","False","4388.000011444092","155760","pygame-experiment-visual-world-paradigm.osexp","C:\Users\yarbus\Desktop\Team Cat\visual-word-paradigm","black","0","0","medium-open","1000","False","mono","False","32","no","black","no","yes","1080","7","Look at the screen and listen carefully. press any key to continue","True","mono","black","32","None","None","w","legacy","1","wolf","48","48","shopping mall","C:/Users/yarbus/Desktop/Team Cat/visual-word-paradigm/trials/subject-5.csv","2000","legacy","Melodramatic Milgram","4.0.13","False","mono","black","32","None","380","Pause. Look at the fixation dot in order to continue.","30000","-480","480","-480","480","270","270","-270","-270","1000","0","2","legacy","In the shopping mall, the girl shopped for clothes.","500","1024","2","3.888000011444092","48000","-16","C:\Users\yarbus\AppData\Local\Temp\tmp7mkjzt09.opensesame_pool\07_clothes.ogg","CD","flowers","clothes","cellphone","CD","flowers","clothes","cellphone","experiment","clothes","5","odd","2579","TL","607352.0","C:\Users\yarbus\Desktop\Team Cat\visual-word-paradigm\temp","6152","150893","600755","391","600755","668","150893","600692","609352","NA","607306","645","601801","600722","600533","NA","602869","155761","600715","438","experiment-visual-word-paradigm","609352.0","shopped","1703","wolf.mp4","1920"
"47_baggage.ogg","white","legacy","True","C:\Users\yarbus\Desktop\Team Cat\visual-word-paradigm\temp","legacy","legacy","motion","C:\Users\yarbus\Desktop\Team Cat\visual-word-paradigm\config.yml","0","0","49","0","49","0","0","49","49","0","49","0","49","49","49","0","49","0","49","0","21.9561770114926","50","Fri Aug  9 13:39:12 2024","20","The main experiment item","False","4676.000118255615","155760","pygame-experiment-visual-world-paradigm.osexp","C:\Users\yarbus\Desktop\Team Cat\visual-word-paradigm","black","0","0","medium-open","1000","False","mono","False","32","no","black","no","yes","1080","47","Look at the screen and listen carefully. press any key to continue","True","mono","black","32","None","None","w","legacy","1","wolf","49","49","airport","C:/Users/yarbus/Desktop/Team Cat/visual-word-paradigm/trials/subject-5.csv","2000","legacy","Melodramatic Milgram","4.0.13","False","mono","black","32","None","380","Pause. Look at the fixation dot in order to continue.","30000","-480","480","-480","480","270","270","-270","-270","1000","0","2","legacy","At the airport, the girl waited at the baggage claim.","500","1024","2","4.176000118255615","48000","-16","C:\Users\yarbus\AppData\Local\Temp\tmp7mkjzt09.opensesame_pool\47_baggage.ogg","baggage","rollercoaster","basketballhoop","croissant","baggage","rollercoaster","basketballhoop","croissant","experiment","baggage","5","odd","2756","BL","616508.0","C:\Users\yarbus\Desktop\Team Cat\visual-word-paradigm\temp","6152","150893","609593","391","609593","668","150893","609538","618515","NA","616456","645","610638","609565","609354","NA","611714","155761","609564","438","experiment-visual-word-paradigm","618508.0","waited","1593","wolf.mp4","1920"
"41_drinks.ogg","white","legacy","True","C:\Users\yarbus\Desktop\Team Cat\visual-word-paradigm\temp","legacy","legacy","motion","C:\Users\yarbus\Desktop\Team Cat\visual-word-paradigm\config.yml","0","0","50","0","50","0","0","50","50","0","50","0","50","50","50","0","50","0","50","0","35.26218817713949","50","Fri Aug  9 13:39:12 2024","20","The main experiment item","False","4075.999975204468","155760","pygame-experiment-visual-world-paradigm.osexp","C:\Users\yarbus\Desktop\Team Cat\visual-word-paradigm","black","0","0","medium-open","1000","False","mono","False","32","no","black","no","yes","1080","41","Look at the screen and listen carefully. press any key to continue","True","mono","black","32","None","None","w","legacy","1","wolf","50","50","party","C:/Users/yarbus/Desktop/Team Cat/visual-word-paradigm/trials/subject-5.csv","2000","legacy","Melodramatic Milgram","4.0.13","False","mono","black","32","None","380","Pause. Look at the fixation dot in order to continue.","30000","-480","480","-480","480","270","270","-270","-270","1000","0","2","legacy","At the party, the girl served drinks to the guests.","500","1024","2","3.5759999752044678","48000","-16","C:\Users\yarbus\AppData\Local\Temp\tmp7mkjzt09.opensesame_pool\41_drinks.ogg","drinks","nailclipper","cats","shoppingcart","drinks","nailclipper","cats","shoppingcart","experiment","drinks","5","odd","2115","BL","625174.0","C:\Users\yarbus\Desktop\Team Cat\visual-word-paradigm\temp","6152","150893","618783","391","618783","668","150893","618717","627176","NA","625128","645","619820","618752","618527","NA","620933","155761","618740","438","experiment-visual-word-paradigm","627174.0","served","1333","wolf.mp4","1920"
"55_frisbee.ogg","white","legacy","True","C:\Users\yarbus\Desktop\Team Cat\visual-word-paradigm\temp","legacy","legacy","motion","C:\Users\yarbus\Desktop\Team Cat\visual-word-paradigm\config.yml","0","0","51","0","51","0","0","51","51","0","51","0","51","51","51","0","51","0","51","0","27.072905516770902","50","Fri Aug  9 13:39:12 2024","20","The main experiment item","False","3716.0000801086426","155760","pygame-experiment-visual-world-paradigm.osexp","C:\Users\yarbus\Desktop\Team Cat\visual-word-paradigm","black","0","0","medium-open","1000","False","mono","False","32","no","black","no","yes","1080","55","Look at the screen and listen carefully. press any key to continue","True","mono","black","32","None","None","w","legacy","1","wolf","51","51","grass","C:/Users/yarbus/Desktop/Team Cat/visual-word-paradigm/trials/subject-5.csv","2000","legacy","Melodramatic Milgram","4.0.13","False","mono","black","32","None","380","Pause. Look at the fixation dot in order to continue.","30000","-480","480","-480","480","270","270","-270","-270","1000","0","2","legacy","On the grass, the girl played frisbee.","500","1024","2","3.2160000801086426","48000","-16","C:\Users\yarbus\AppData\Local\Temp\tmp7mkjzt09.opensesame_pool\55_frisbee.ogg","car","frisbee","math","rollercoaster","car","frisbee","math","rollercoaster","experiment","frisbee","5","odd","2036","BR","633474.0","C:\Users\yarbus\Desktop\Team Cat\visual-word-paradigm\temp","6152","150893","627438","391","627438","668","150893","627367","635534","NA","633425","645","628478","627399","627180","NA","629615","155761","627390","438","experiment-visual-word-paradigm","635474.0","played","1742","wolf.mp4","1920"
"37_vegetables.ogg","white","legacy","True","C:\Users\yarbus\Desktop\Team Cat\visual-word-paradigm\temp","legacy","legacy","motion","C:\Users\yarbus\Desktop\Team Cat\visual-word-paradigm\config.yml","0","0","52","0","52","0","0","52","52","0","52","0","52","52","52","0","52","0","52","0","30.24086934464681","50","Fri Aug  9 13:39:12 2024","20","The main experiment item","False","4003.999948501587","155760","pygame-experiment-visual-world-paradigm.osexp","C:\Users\yarbus\Desktop\Team Cat\visual-word-paradigm","black","0","0","medium-open","1000","False","mono","False","32","no","black","no","yes","1080","37","Look at the screen and listen carefully. press any key to continue","True","mono","black","32","None","None","w","legacy","1","wolf","52","52","market","C:/Users/yarbus/Desktop/Team Cat/visual-word-paradigm/trials/subject-5.csv","2000","legacy","Melodramatic Milgram","4.0.13","False","mono","black","32","None","380","Pause. Look at the fixation dot in order to continue.","30000","-480","480","-480","480","270","270","-270","-270","1000","0","2","legacy","At the market, the girl bought fresh vegetables.","500","1024","2","3.503999948501587","48000","-16","C:\Users\yarbus\AppData\Local\Temp\tmp7mkjzt09.opensesame_pool\37_vegetables.ogg","vegetables","pacifier","duck","bicycle","vegetables","pacifier","duck","bicycle","experiment","vegetables","5","odd","2344","BL","642081.0","C:\Users\yarbus\Desktop\Team Cat\visual-word-paradigm\temp","6152","150893","635811","391","635811","668","150893","635747","644193","NA","642028","645","636848","635782","635546","NA","637921","155761","635770","438","experiment-visual-word-paradigm","644081.0","bought","1606","wolf.mp4","1920"
"42_bicycle.ogg","white","legacy","True","C:\Users\yarbus\Desktop\Team Cat\visual-word-paradigm\temp","legacy","legacy","motion","C:\Users\yarbus\Desktop\Team Cat\visual-word-paradigm\config.yml","0","0","53","0","53","0","0","53","53","0","53","0","53","53","53","0","53","0","53","0","46.67110090494977","50","Fri Aug  9 13:39:12 2024","20","The main experiment item","False","4292.00005531311","155760","pygame-experiment-visual-world-paradigm.osexp","C:\Users\yarbus\Desktop\Team Cat\visual-word-paradigm","black","0","0","medium-open","1000","False","mono","False","32","no","black","no","yes","1080","42","Look at the screen and listen carefully. press any key to continue","True","mono","black","32","None","None","w","legacy","1","wolf","53","53","garage","C:/Users/yarbus/Desktop/Team Cat/visual-word-paradigm/trials/subject-5.csv","2000","legacy","Melodramatic Milgram","4.0.13","False","mono","black","32","None","380","Pause. Look at the fixation dot in order to continue.","30000","-480","480","-480","480","270","270","-270","-270","1000","0","2","legacy","In the garage, the girl fixed her bicycle.","500","1024","2","3.7920000553131104","48000","-16","C:\Users\yarbus\AppData\Local\Temp\tmp7mkjzt09.opensesame_pool\42_bicycle.ogg","bicycle","clothes","patioumbrella","card","bicycle","clothes","patioumbrella","card","experiment","bicycle","5","odd","2516","BL","651024.0","C:\Users\yarbus\Desktop\Team Cat\visual-word-paradigm\temp","6152","150893","644445","391","644445","668","150893","644383","653310","NA","650985","645","645485","644416","644195","NA","646558","155761","644406","438","experiment-visual-word-paradigm","653024.0","fixed","1627","wolf.mp4","1920"
"57_trails.ogg","white","legacy","True","C:\Users\yarbus\Desktop\Team Cat\visual-word-paradigm\temp","legacy","legacy","motion","C:\Users\yarbus\Desktop\Team Cat\visual-word-paradigm\config.yml","0","0","54","0","54","0","0","54","54","0","54","0","54","54","54","0","54","0","54","0","31.881884574159034","50","Fri Aug  9 13:39:12 2024","20","The main experiment item","False","3859.999895095825","155760","pygame-experiment-visual-world-paradigm.osexp","C:\Users\yarbus\Desktop\Team Cat\visual-word-paradigm","black","0","0","medium-open","1000","False","mono","False","32","no","black","no","yes","1080","57","Look at the screen and listen carefully. press any key to continue","True","mono","black","32","None","None","w","legacy","1","wolf","54","54","forest","C:/Users/yarbus/Desktop/Team Cat/visual-word-paradigm/trials/subject-5.csv","2000","legacy","Melodramatic Milgram","4.0.13","False","mono","black","32","None","380","Pause. Look at the fixation dot in order to continue.","30000","-480","480","-480","480","270","270","-270","-270","1000","0","2","legacy","In the forest, the girl hiked on trails.","500","1024","2","3.359999895095825","48000","-16","C:\Users\yarbus\AppData\Local\Temp\tmp7mkjzt09.opensesame_pool\57_trails.ogg","bust","hiking","belt","bathtub","bust","hiking","belt","bathtub","experiment","trails","5","odd","2394","BR","659789.0","C:\Users\yarbus\Desktop\Team Cat\visual-word-paradigm\temp","6152","150893","653612","391","653612","668","150893","653541","661789","NA","659743","645","654652","653572","653311","NA","655754","155761","653564","438","experiment-visual-word-paradigm","661789.0","hiked","1349","wolf.mp4","1920"
"48_cigarette.ogg","white","legacy","True","C:\Users\yarbus\Desktop\Team Cat\visual-word-paradigm\temp","legacy","legacy","motion","C:\Users\yarbus\Desktop\Team Cat\visual-word-paradigm\config.yml","0","0","55","0","55","0","0","55","55","0","55","0","55","55","55","0","55","0","55","0","37.12110717529847","50","Fri Aug  9 13:39:12 2024","20","The main experiment item","False","4003.999948501587","155760","pygame-experiment-visual-world-paradigm.osexp","C:\Users\yarbus\Desktop\Team Cat\visual-word-paradigm","black","0","0","medium-open","1000","False","mono","False","32","no","black","no","yes","1080","48","Look at the screen and listen carefully. press any key to continue","True","mono","black","32","None","None","w","legacy","1","wolf","55","55","terrace","C:/Users/yarbus/Desktop/Team Cat/visual-word-paradigm/trials/subject-5.csv","2000","legacy","Melodramatic Milgram","4.0.13","False","mono","black","32","None","380","Pause. Look at the fixation dot in order to continue.","30000","-480","480","-480","480","270","270","-270","-270","1000","0","2","legacy","On the terrace, the girl smoked a cigarette.","500","1024","2","3.503999948501587","48000","-16","C:\Users\yarbus\AppData\Local\Temp\tmp7mkjzt09.opensesame_pool\48_cigarette.ogg","cigarette","bicycle","fishing","car","cigarette","bicycle","fishing","car","experiment","cigarette","5","odd","2273","BL","668222.0","C:\Users\yarbus\Desktop\Team Cat\visual-word-paradigm\temp","6152","150893","662014","391","662014","668","150893","661963","670222","NA","668179","645","663054","661988","661802","NA","664114","155761","661986","438","experiment-visual-word-paradigm","670222.0","smoked","1546","wolf.mp4","1920"
"31_landscape.ogg","white","legacy","True","C:\Users\yarbus\Desktop\Team Cat\visual-word-paradigm\temp","legacy","legacy","static","C:\Users\yarbus\Desktop\Team Cat\visual-word-paradigm\config.yml","0","0","56","0","56","0","0","56","56","0","56","0","56","56","56","0","56","0","56","0","12.062760281129705","50","Fri Aug  9 13:39:12 2024","20","The main experiment item","False","4220.0000286102295","155760","pygame-experiment-visual-world-paradigm.osexp","C:\Users\yarbus\Desktop\Team Cat\visual-word-paradigm","black","0","0","medium-open","1000","False","mono","False","32","no","black","no","yes","1080","31","Look at the screen and listen carefully. press any key to continue","True","mono","black","32","None","None","w","legacy","1","wolf","56","56","art class","C:/Users/yarbus/Desktop/Team Cat/visual-word-paradigm/trials/subject-5.csv","2000","legacy","Melodramatic Milgram","4.0.13","False","mono","black","32","None","380","Pause. Look at the fixation dot in order to continue.","30000","-480","480","-480","480","270","270","-270","-270","1000","0","2","legacy","During art class, the girl painted a landscape.","500","1024","2","3.7200000286102295","48000","-16","C:\Users\yarbus\AppData\Local\Temp\tmp7mkjzt09.opensesame_pool\31_landscape.ogg","cats","boxtruck","belt","landscapepainting","cats","boxtruck","belt","landscapepainting","experiment","landscapepainting","5","odd","2742","TR","676925.0","C:\Users\yarbus\Desktop\Team Cat\visual-word-paradigm\temp","6152","150893","670495","391","670495","668","150893","670422","678925","NA","676888","645","671538","670460","670235","NA","672603","155761","670445","438","experiment-visual-word-paradigm","678925.0","painted","2015","wolf.mp4","1920"
"36_marathon.ogg","white","legacy","True","C:\Users\yarbus\Desktop\Team Cat\visual-word-paradigm\temp","legacy","legacy","motion","C:\Users\yarbus\Desktop\Team Cat\visual-word-paradigm\config.yml","0","0","57","0","57","0","0","57","57","0","57","0","57","57","57","0","57","0","57","0","34.045823426670125","50","Fri Aug  9 13:39:12 2024","20","The main experiment item","False","3835.9999656677246","155760","pygame-experiment-visual-world-paradigm.osexp","C:\Users\yarbus\Desktop\Team Cat\visual-word-paradigm","black","0","0","medium-open","1000","False","mono","False","32","no","black","no","yes","1080","36","Look at the screen and listen carefully. press any key to continue","True","mono","black","32","None","None","w","legacy","1","wolf","57","57","stadium","C:/Users/yarbus/Desktop/Team Cat/visual-word-paradigm/trials/subject-5.csv","2000","legacy","Melodramatic Milgram","4.0.13","False","mono","black","32","None","380","Pause. Look at the fixation dot in order to continue.","30000","-480","480","-480","480","270","270","-270","-270","1000","0","2","legacy","At the stadium, the girl ran a marathon.","500","1024","2","3.3359999656677246","48000","-16","C:\Users\yarbus\AppData\Local\Temp\tmp7mkjzt09.opensesame_pool\36_marathon.ogg","marathon","dishes","mouse","bust","marathon","dishes","mouse","bust","experiment","marathon","5","odd","2382","BL","685207.0","C:\Users\yarbus\Desktop\Team Cat\visual-word-paradigm\temp","6152","150893","679186","391","679186","668","150893","679122","687207","NA","685158","645","680216","679155","678927","NA","681263","155761","679145","438","experiment-visual-word-paradigm","687207.0","ran","1389","wolf.mp4","1920"
