"audio","background","canvas_backend","central_fixation","cfg_temp_dir","clock_backend","color_backend","condition","config_path","count_calibration_pygaze_init","count_check_group_selection","count_define_logging","count_experiment","count_fixation","count_instruction_screen","count_latin_square_group_select","count_logsleep","count_new_logger","count_outro_screen","count_pause","count_preprocess_videos","count_preview","count_pygaze_start_recording","count_pygaze_stop_recording","count_readme","count_sentence","count_trial_loop","count_trial_sequence","count_utils","d","d_to_continue","datetime","delay_logsleep","description","disable_garbage_collection","duration","end_time","experiment_file","experiment_path","fixdot_color","fixdot_posx","fixdot_posy","fixdot_style","fixtime","font_bold","font_family","font_italic","font_size","font_underline","foreground","form_clicks","fullscreen","height","index","inst","inst_cnt","inst_font","inst_font_col","inst_font_size","inst_posx","inst_posy","key","keyboard_backend","latin_group","latin_group_name","live_row","live_row_trial_loop","location_cue","logfile","minpause","mouse_backend","opensesame_codename","opensesame_version","pause_cntr","pause_font","pause_font_col","pause_font_size","pause_posx","pause_posy","pause_text","pausetimeout","posx_sstimBL","posx_sstimBR","posx_sstimTL","posx_sstimTR","posy_sstimBL","posy_sstimBR","posy_sstimTL","posy_sstimTR","prevtime","repeat_cycle","round_decimals","sampler_backend","sentence","sentenceoffset","sound_buf_size","sound_channels","sound_duration_ms","sound_freq","sound_sample_size","src","sstimBL","sstimBR","sstimTL","sstimTR","sstim_bl","sstim_br","sstim_tl","sstim_tr","start","stimulus_name","subject_nr","subject_parity","target_cue_timing","target_pos","tcur","temp_dir","time_calibration_pygaze_init","time_check_group_selection","time_define_logging","time_experiment","time_fixation","time_instruction_screen","time_latin_square_group_select","time_logsleep","time_new_logger","time_outro_screen","time_pause","time_preprocess_videos","time_preview","time_pygaze_start_recording","time_pygaze_stop_recording","time_readme","time_sentence","time_trial_loop","time_trial_sequence","time_utils","title","tmin","verb_cue","verb_cue_timing","video_file","width"
"57_trails.ogg","white","legacy","True","C:\Users\yarbus\Desktop\Team Cat\visual-word-paradigm\temp","legacy","legacy","motion","C:\Users\yarbus\Desktop\Team Cat\visual-word-paradigm\config.yml","0","0","0","0","0","0","0","0","0","0","0","0","0","0","0","0","0","0","0","0","33.0996974294328","50","Fri Jul 12 14:11:37 2024","20","The main experiment item","False","3859.999895095825","1109529","pygame-experiment-visual-world-paradigm.osexp","C:\Users\yarbus\Desktop\Team Cat\visual-word-paradigm","black","0","0","medium-open","1000","False","mono","False","32","no","black","no","yes","1080","57","Look at the screen and listen carefully. press any key to continue","True","mono","black","32","None","None","w","legacy","1","wolf","0","0","forest","C:/Users/yarbus/Desktop/Team Cat/visual-word-paradigm/trials/subject-9.csv","2000","legacy","Melodramatic Milgram","4.0.13","False","mono","black","32","None","380","Pause. Look at the fixation dot in order to continue.","30000","-480","480","-480","480","270","270","-270","-270","1000","0","2","legacy","In the forest, the girl hiked on trails.","500","1024","2","3.359999895095825","48000","-16","C:\Users\yarbus\AppData\Local\Temp\tmpvzxioa4h.opensesame_pool\57_trails.ogg","bust","hiking","belt","bathtub","bust","hiking","belt","bathtub","experiment","trails","9","odd","2394","BR","1116951.0","C:\Users\yarbus\Desktop\Team Cat\visual-word-paradigm\temp","1001729","1104382","1110810","995096","1110810","995161","1104381","NA","1122006","NA","1116890","995139","1111861","1109545","NA","NA","1112964","1109530","1109535","995130","experiment-visual-word-paradigm","1118951.0","hiked","1349","wolf.mp4","1920"
"60_tree.ogg","white","legacy","True","C:\Users\yarbus\Desktop\Team Cat\visual-word-paradigm\temp","legacy","legacy","motion","C:\Users\yarbus\Desktop\Team Cat\visual-word-paradigm\config.yml","0","0","1","0","1","0","0","1","1","0","1","0","1","1","1","0","1","0","1","0","38.89016785564191","50","Fri Jul 12 14:11:37 2024","20","The main experiment item","False","4267.999887466431","1109529","pygame-experiment-visual-world-paradigm.osexp","C:\Users\yarbus\Desktop\Team Cat\visual-word-paradigm","black","0","0","medium-open","1000","False","mono","False","32","no","black","no","yes","1080","60","Look at the screen and listen carefully. press any key to continue","True","mono","black","32","None","None","w","legacy","1","wolf","1","1","forest","C:/Users/yarbus/Desktop/Team Cat/visual-word-paradigm/trials/subject-9.csv","2000","legacy","Melodramatic Milgram","4.0.13","False","mono","black","32","None","380","Pause. Look at the fixation dot in order to continue.","30000","-480","480","-480","480","270","270","-270","-270","1000","0","2","legacy","In the forest, the girl cut down a tree.","500","1024","2","3.7679998874664307","48000","-16","C:\Users\yarbus\AppData\Local\Temp\tmpvzxioa4h.opensesame_pool\60_tree.ogg","bookshelf","tree","calculator","cactus","bookshelf","tree","calculator","cactus","experiment","tree","9","odd","2469","BR","1138198.0","C:\Users\yarbus\Desktop\Team Cat\visual-word-paradigm\temp","1001729","1104382","1131591","995096","1131591","995161","1104381","1122561","1140619","NA","1138165","995139","1132629","1122588","1122023","NA","1133755","1109530","1122585","995130","experiment-visual-word-paradigm","1140198.0","cut","1377","wolf.mp4","1920"
"11_chicken.ogg","white","legacy","True","C:\Users\yarbus\Desktop\Team Cat\visual-word-paradigm\temp","legacy","legacy","static","C:\Users\yarbus\Desktop\Team Cat\visual-word-paradigm\config.yml","0","0","2","0","2","0","0","2","2","0","2","0","2","2","2","0","2","0","2","0","19.790739943721135","50","Fri Jul 12 14:11:37 2024","20","The main experiment item","False","3548.0000972747803","1109529","pygame-experiment-visual-world-paradigm.osexp","C:\Users\yarbus\Desktop\Team Cat\visual-word-paradigm","black","0","0","medium-open","1000","False","mono","False","32","no","black","no","yes","1080"," ","Look at the screen and listen carefully. press any key to continue","True","mono","black","32","None","None","w","legacy","1","wolf","2","2","farm","C:/Users/yarbus/Desktop/Team Cat/visual-word-paradigm/trials/subject-9.csv","2000","legacy","Melodramatic Milgram","4.0.13","False","mono","black","32","None","380","Pause. Look at the fixation dot in order to continue.","30000","-480","480","-480","480","270","270","-270","-270","1000","0","2","legacy","At the farm, the girl fed the chicken. ","500","1024","2","3.0480000972747803","48000","-16","C:\Users\yarbus\AppData\Local\Temp\tmpvzxioa4h.opensesame_pool\11_chicken.ogg","shoppingcart","battery","chicken","basketball","shoppingcart","battery","chicken","basketball","experiment","chicken","9","odd","2193","TL","1146673.0","C:\Users\yarbus\Desktop\Team Cat\visual-word-paradigm\temp","1001729","1104382","1140923","995096","1140923","995161","1104381","1140862","1149082","NA","1146630","995139","1141952","1140893","1140632","NA","1143009","1109530","1140885","995130","experiment-visual-word-paradigm","1148673.0","fed","1607","wolf.mp4","1920"
"31_landscape.ogg","white","legacy","True","C:\Users\yarbus\Desktop\Team Cat\visual-word-paradigm\temp","legacy","legacy","static","C:\Users\yarbus\Desktop\Team Cat\visual-word-paradigm\config.yml","0","0","3","0","3","0","0","3","3","0","3","0","3","3","3","0","3","0","3","0","6.892242177985316","50","Fri Jul 12 14:11:37 2024","20","The main experiment item","False","4220.0000286102295","1109529","pygame-experiment-visual-world-paradigm.osexp","C:\Users\yarbus\Desktop\Team Cat\visual-word-paradigm","black","0","0","medium-open","1000","False","mono","False","32","no","black","no","yes","1080","31","Look at the screen and listen carefully. press any key to continue","True","mono","black","32","None","None","w","legacy","1","wolf","3","3","art class","C:/Users/yarbus/Desktop/Team Cat/visual-word-paradigm/trials/subject-9.csv","2000","legacy","Melodramatic Milgram","4.0.13","False","mono","black","32","None","380","Pause. Look at the fixation dot in order to continue.","30000","-480","480","-480","480","270","270","-270","-270","1000","0","2","legacy","During art class, the girl painted a landscape.","500","1024","2","3.7200000286102295","48000","-16","C:\Users\yarbus\AppData\Local\Temp\tmpvzxioa4h.opensesame_pool\31_landscape.ogg","cats","boxtruck","belt","landscapepainting","cats","boxtruck","belt","landscapepainting","experiment","landscapepainting","9","odd","2742","TR","1155801.0","C:\Users\yarbus\Desktop\Team Cat\visual-word-paradigm\temp","1001729","1104382","1149376","995096","1149376","995161","1104381","1149310","1157801","NA","1155744","995139","1150409","1149346","1149084","NA","1151474","1109530","1149334","995130","experiment-visual-word-paradigm","1157801.0","painted","2015","wolf.mp4","1920"
"63_meditation.ogg","white","legacy","True","C:\Users\yarbus\Desktop\Team Cat\visual-word-paradigm\temp","legacy","legacy","motion","C:\Users\yarbus\Desktop\Team Cat\visual-word-paradigm\config.yml","0","0","4","0","4","0","0","4","4","0","4","0","4","4","4","0","4","0","4","0","47.63334024483274","50","Fri Jul 12 14:11:37 2024","20","The main experiment item","False","4748.000144958496","1109529","pygame-experiment-visual-world-paradigm.osexp","C:\Users\yarbus\Desktop\Team Cat\visual-word-paradigm","black","0","0","medium-open","1000","False","mono","False","32","no","black","no","yes","1080","63","Look at the screen and listen carefully. press any key to continue","True","mono","black","32","None","None","w","legacy","1","wolf","4","4","yoga class","C:/Users/yarbus/Desktop/Team Cat/visual-word-paradigm/trials/subject-9.csv","2000","legacy","Melodramatic Milgram","4.0.13","False","mono","black","32","None","380","Pause. Look at the fixation dot in order to continue.","30000","-480","480","-480","480","270","270","-270","-270","1000","0","2","legacy","During yoga class, the girl practised meditation. ","500","1024","2","4.248000144958496","48000","-16","C:\Users\yarbus\AppData\Local\Temp\tmpvzxioa4h.opensesame_pool\63_meditation.ogg","barbecue","meditation","mitten","bookshelf","barbecue","meditation","mitten","bookshelf","experiment","meditation","9","odd","3105","BR","1165137.0","C:\Users\yarbus\Desktop\Team Cat\visual-word-paradigm\temp","1001729","1104382","1158055","995096","1158055","995161","1104381","1157984","1167137","NA","1165084","995139","1159098","1158021","1157814","NA","1160220","1109530","1158011","995130","experiment-visual-word-paradigm","1167137.0","practised","2119","wolf.mp4","1920"
"16_mouse.ogg","white","legacy","True","C:\Users\yarbus\Desktop\Team Cat\visual-word-paradigm\temp","legacy","legacy","static","C:\Users\yarbus\Desktop\Team Cat\visual-word-paradigm\config.yml","0","0","5","0","5","0","0","5","5","0","5","0","5","5","5","0","5","0","5","0","33.769198528836924","50","Fri Jul 12 14:11:37 2024","20","The main experiment item","False","3740.000009536743","1109529","pygame-experiment-visual-world-paradigm.osexp","C:\Users\yarbus\Desktop\Team Cat\visual-word-paradigm","black","0","0","medium-open","1000","False","mono","False","32","no","black","no","yes","1080","16","Look at the screen and listen carefully. press any key to continue","True","mono","black","32","None","None","w","legacy","1","wolf","5","5","desk","C:/Users/yarbus/Desktop/Team Cat/visual-word-paradigm/trials/subject-9.csv","2000","legacy","Melodramatic Milgram","4.0.13","False","mono","black","32","None","380","Pause. Look at the fixation dot in order to continue.","30000","-480","480","-480","480","270","270","-270","-270","1000","0","2","legacy","At her desk, the girl clicked the mouse. ","500","1024","2","3.240000009536743","48000","-16","C:\Users\yarbus\AppData\Local\Temp\tmpvzxioa4h.opensesame_pool\16_mouse.ogg","moon","button","mouse","ceilingfan","moon","button","mouse","ceilingfan","experiment","mouse","9","odd","2425","TL","1173339.0","C:\Users\yarbus\Desktop\Team Cat\visual-word-paradigm\temp","1001729","1104382","1167381","995096","1167381","995161","1104381","1167325","1175381","NA","1173289","995139","1168423","1167357","1167149","NA","1169479","1109530","1167348","995130","experiment-visual-word-paradigm","1175339.0","clicked","1427","wolf.mp4","1920"
"48_cigarette.ogg","white","legacy","True","C:\Users\yarbus\Desktop\Team Cat\visual-word-paradigm\temp","legacy","legacy","motion","C:\Users\yarbus\Desktop\Team Cat\visual-word-paradigm\config.yml","0","0","6","0","6","0","0","6","6","0","6","0","6","6","6","0","6","0","6","0","11.426834837346613","50","Fri Jul 12 14:11:37 2024","20","The main experiment item","False","4003.999948501587","1109529","pygame-experiment-visual-world-paradigm.osexp","C:\Users\yarbus\Desktop\Team Cat\visual-word-paradigm","black","0","0","medium-open","1000","False","mono","False","32","no","black","no","yes","1080","48","Look at the screen and listen carefully. press any key to continue","True","mono","black","32","None","None","w","legacy","1","wolf","6","6","terrace","C:/Users/yarbus/Desktop/Team Cat/visual-word-paradigm/trials/subject-9.csv","2000","legacy","Melodramatic Milgram","4.0.13","False","mono","black","32","None","380","Pause. Look at the fixation dot in order to continue.","30000","-480","480","-480","480","270","270","-270","-270","1000","0","2","legacy","On the terrace, the girl smoked a cigarette.","500","1024","2","3.503999948501587","48000","-16","C:\Users\yarbus\AppData\Local\Temp\tmpvzxioa4h.opensesame_pool\48_cigarette.ogg","cigarette","bicycle","fishing","car","cigarette","bicycle","fishing","car","experiment","cigarette","9","odd","2273","BL","1181887.0","C:\Users\yarbus\Desktop\Team Cat\visual-word-paradigm\temp","1001729","1104382","1175631","995096","1175631","995161","1104381","1175570","1183887","NA","1181841","995139","1176674","1175601","1175394","NA","1177772","1109530","1175593","995130","experiment-visual-word-paradigm","1183887.0","smoked","1546","wolf.mp4","1920"
"26_weights.ogg","white","legacy","True","C:\Users\yarbus\Desktop\Team Cat\visual-word-paradigm\temp","legacy","legacy","static","C:\Users\yarbus\Desktop\Team Cat\visual-word-paradigm\config.yml","0","0","7","0","7","0","0","7","7","0","7","0","7","7","7","0","7","0","7","0","14.874822066834975","50","Fri Jul 12 14:11:37 2024","20","The main experiment item","False","3907.9999923706055","1109529","pygame-experiment-visual-world-paradigm.osexp","C:\Users\yarbus\Desktop\Team Cat\visual-word-paradigm","black","0","0","medium-open","1000","False","mono","False","32","no","black","no","yes","1080","26","Look at the screen and listen carefully. press any key to continue","True","mono","black","32","None","None","w","legacy","1","wolf","7","7","gym","C:/Users/yarbus/Desktop/Team Cat/visual-word-paradigm/trials/subject-9.csv","2000","legacy","Melodramatic Milgram","4.0.13","False","mono","black","32","None","380","Pause. Look at the fixation dot in order to continue.","30000","-480","480","-480","480","270","270","-270","-270","1000","0","2","legacy","At the gym, the girl lifted weights.","500","1024","2","3.4079999923706055","48000","-16","C:\Users\yarbus\AppData\Local\Temp\tmpvzxioa4h.opensesame_pool\26_weights.ogg","croissant","horse","paintcan","weights","croissant","horse","paintcan","weights","experiment","weights","9","odd","2831","TR","1190281.0","C:\Users\yarbus\Desktop\Team Cat\visual-word-paradigm\temp","1001729","1104382","1184153","995096","1184153","995161","1104381","1184086","1192281","NA","1190238","995139","1185213","1184117","1183898","NA","1186269","1109530","1184109","995130","experiment-visual-word-paradigm","1192281.0","lifted","1825","wolf.mp4","1920"
"13_dice.ogg","white","legacy","True","C:\Users\yarbus\Desktop\Team Cat\visual-word-paradigm\temp","legacy","legacy","static","C:\Users\yarbus\Desktop\Team Cat\visual-word-paradigm\config.yml","0","0","8","0","8","0","0","8","8","0","8","0","8","8","8","0","8","0","8","0","33.587585678044825","50","Fri Jul 12 14:11:37 2024","20","The main experiment item","False","3644.0000534057617","1109529","pygame-experiment-visual-world-paradigm.osexp","C:\Users\yarbus\Desktop\Team Cat\visual-word-paradigm","black","0","0","medium-open","1000","False","mono","False","32","no","black","no","yes","1080","13","Look at the screen and listen carefully. press any key to continue","True","mono","black","32","None","None","w","legacy","1","wolf","8","8","casino","C:/Users/yarbus/Desktop/Team Cat/visual-word-paradigm/trials/subject-9.csv","2000","legacy","Melodramatic Milgram","4.0.13","False","mono","black","32","None","380","Pause. Look at the fixation dot in order to continue.","30000","-480","480","-480","480","270","270","-270","-270","1000","0","2","legacy","At the casino, the girl threw a dice.","500","1024","2","3.1440000534057617","48000","-16","C:\Users\yarbus\AppData\Local\Temp\tmpvzxioa4h.opensesame_pool\13_dice.ogg","moon","calendar","dice","injection","moon","calendar","dice","injection","experiment","dice","9","odd","2221","TL","1198404.0","C:\Users\yarbus\Desktop\Team Cat\visual-word-paradigm\temp","1001729","1104382","1192558","995096","1192558","995161","1104381","1192489","1200404","NA","1198358","995139","1193603","1192521","1192293","NA","1194665","1109530","1192513","995130","experiment-visual-word-paradigm","1200404.0","threw","1621","wolf.mp4","1920"
"51_beer.ogg","white","legacy","True","C:\Users\yarbus\Desktop\Team Cat\visual-word-paradigm\temp","legacy","legacy","motion","C:\Users\yarbus\Desktop\Team Cat\visual-word-paradigm\config.yml","0","0","9","0","9","0","0","9","9","0","9","0","9","9","9","0","9","0","9","0","13.504422955461639","50","Fri Jul 12 14:11:37 2024","20","The main experiment item","False","3308.000087738037","1109529","pygame-experiment-visual-world-paradigm.osexp","C:\Users\yarbus\Desktop\Team Cat\visual-word-paradigm","black","0","0","medium-open","1000","False","mono","False","32","no","black","no","yes","1080","51","Look at the screen and listen carefully. press any key to continue","True","mono","black","32","None","None","w","legacy","1","wolf","9","9","bar","C:/Users/yarbus/Desktop/Team Cat/visual-word-paradigm/trials/subject-9.csv","2000","legacy","Melodramatic Milgram","4.0.13","False","mono","black","32","None","380","Pause. Look at the fixation dot in order to continue.","30000","-480","480","-480","480","270","270","-270","-270","1000","0","2","legacy","In the bar, the girl drank beer. ","500","1024","2","2.808000087738037","48000","-16","C:\Users\yarbus\AppData\Local\Temp\tmpvzxioa4h.opensesame_pool\51_beer.ogg","treadmill","beer","bathtub","plants","treadmill","beer","bathtub","plants","experiment","beer","9","odd","2090","BR","1206293.0","C:\Users\yarbus\Desktop\Team Cat\visual-word-paradigm\temp","1001729","1104382","1200662","995096","1200663","995161","1104381","1200607","1208293","NA","1206246","995139","1201700","1200634","1200416","NA","1202839","1109530","1200631","995130","experiment-visual-word-paradigm","1208293.0","drank","1585","wolf.mp4","1920"
"61_cellphone.ogg","white","legacy","True","C:\Users\yarbus\Desktop\Team Cat\visual-word-paradigm\temp","legacy","legacy","motion","C:\Users\yarbus\Desktop\Team Cat\visual-word-paradigm\config.yml","0","0","10","0","10","0","0","10","10","0","10","0","10","10","10","0","10","0","10","0","37.02714469791056","50","Fri Jul 12 14:11:37 2024","20","The main experiment item","False","4868.000030517578","1109529","pygame-experiment-visual-world-paradigm.osexp","C:\Users\yarbus\Desktop\Team Cat\visual-word-paradigm","black","0","0","medium-open","1000","False","mono","False","32","no","black","no","yes","1080","61","Look at the screen and listen carefully. press any key to continue","True","mono","black","32","None","None","w","legacy","1","wolf","10","10","cinema","C:/Users/yarbus/Desktop/Team Cat/visual-word-paradigm/trials/subject-9.csv","2000","legacy","Melodramatic Milgram","4.0.13","False","mono","black","32","None","380","Pause. Look at the fixation dot in order to continue.","30000","-480","480","-480","480","270","270","-270","-270","1000","0","2","legacy","In the cinema, the girl turned off her cellphone.","500","1024","2","4.368000030517578","48000","-16","C:\Users\yarbus\AppData\Local\Temp\tmpvzxioa4h.opensesame_pool\61_cellphone.ogg","documents","cellphone","badminton","bathtub","documents","cellphone","badminton","bathtub","experiment","cellphone","9","odd","2297","BR","1215675.0","C:\Users\yarbus\Desktop\Team Cat\visual-word-paradigm\temp","1001729","1104382","1208552","995096","1208552","995161","1104381","1208488","1217675","NA","1215632","995139","1209582","1208523","1208304","NA","1210701","1109530","1208512","995130","experiment-visual-word-paradigm","1217675.0","turned off","1473","wolf.mp4","1920"
"56_marshmallows.ogg","white","legacy","True","C:\Users\yarbus\Desktop\Team Cat\visual-word-paradigm\temp","legacy","legacy","motion","C:\Users\yarbus\Desktop\Team Cat\visual-word-paradigm\config.yml","0","0","11","0","11","0","0","11","11","0","11","0","11","11","11","0","11","0","11","0","34.16083081191085","50","Fri Jul 12 14:11:37 2024","20","The main experiment item","False","4507.999897003174","1109529","pygame-experiment-visual-world-paradigm.osexp","C:\Users\yarbus\Desktop\Team Cat\visual-word-paradigm","black","0","0","medium-open","1000","False","mono","False","32","no","black","no","yes","1080","56","Look at the screen and listen carefully. press any key to continue","True","mono","black","32","None","None","w","legacy","1","wolf","11","11","campfire","C:/Users/yarbus/Desktop/Team Cat/visual-word-paradigm/trials/subject-9.csv","2000","legacy","Melodramatic Milgram","4.0.13","False","mono","black","32","None","380","Pause. Look at the fixation dot in order to continue.","30000","-480","480","-480","480","270","270","-270","-270","1000","0","2","legacy","At the campfire, the girl roasted marshmallows.","500","1024","2","4.007999897003174","48000","-16","C:\Users\yarbus\AppData\Local\Temp\tmpvzxioa4h.opensesame_pool\56_marshmallows.ogg","card","marshmallow","dice","mouse","card","marshmallow","dice","mouse","experiment","marshmallow","9","odd","2892","BR","1224741.0","C:\Users\yarbus\Desktop\Team Cat\visual-word-paradigm\temp","1001729","1104382","1217941","995096","1217941","995161","1104381","1217876","1226741","NA","1224693","995139","1218980","1217911","1217687","NA","1220106","1109530","1217899","995130","experiment-visual-word-paradigm","1226741.0","roasted","2167","wolf.mp4","1920"
"35_soccermatch.ogg","white","legacy","True","C:\Users\yarbus\Desktop\Team Cat\visual-word-paradigm\temp","legacy","legacy","motion","C:\Users\yarbus\Desktop\Team Cat\visual-word-paradigm\config.yml","0","0","12","0","12","0","0","12","12","0","12","0","12","12","12","0","12","0","12","0","36.367473687348685","50","Fri Jul 12 14:11:37 2024","20","The main experiment item","False","4292.00005531311","1109529","pygame-experiment-visual-world-paradigm.osexp","C:\Users\yarbus\Desktop\Team Cat\visual-word-paradigm","black","0","0","medium-open","1000","False","mono","False","32","no","black","no","yes","1080","35","Look at the screen and listen carefully. press any key to continue","True","mono","black","32","None","None","w","legacy","1","wolf","12","12","stadium","C:/Users/yarbus/Desktop/Team Cat/visual-word-paradigm/trials/subject-9.csv","2000","legacy","Melodramatic Milgram","4.0.13","False","mono","black","32","None","380","Pause. Look at the fixation dot in order to continue.","30000","-480","480","-480","480","270","270","-270","-270","1000","0","2","legacy","At the stadium, the girl watched a soccer match.","500","1024","2","3.7920000553131104","48000","-16","C:\Users\yarbus\AppData\Local\Temp\tmpvzxioa4h.opensesame_pool\35_soccermatch.ogg","soccer","parkfountain","bottlecap","nintendods","soccer","parkfountain","bottlecap","nintendods","experiment","soccer","9","odd","2580","BL","1233523.0","C:\Users\yarbus\Desktop\Team Cat\visual-word-paradigm\temp","1001729","1104382","1226977","995096","1226977","995161","1104381","1226912","1235870","NA","1233479","995139","1228020","1226945","1226743","NA","1229131","1109530","1226935","995130","experiment-visual-word-paradigm","1235523.0","watched","1652","wolf.mp4","1920"
"47_baggage.ogg","white","legacy","True","C:\Users\yarbus\Desktop\Team Cat\visual-word-paradigm\temp","legacy","legacy","motion","C:\Users\yarbus\Desktop\Team Cat\visual-word-paradigm\config.yml","0","0","13","0","13","0","0","13","13","0","13","0","13","13","13","0","13","0","13","0","14.006273388735492","50","Fri Jul 12 14:11:37 2024","20","The main experiment item","False","4676.000118255615","1109529","pygame-experiment-visual-world-paradigm.osexp","C:\Users\yarbus\Desktop\Team Cat\visual-word-paradigm","black","0","0","medium-open","1000","False","mono","False","32","no","black","no","yes","1080","47","Look at the screen and listen carefully. press any key to continue","True","mono","black","32","None","None","w","legacy","1","wolf","13","13","airport","C:/Users/yarbus/Desktop/Team Cat/visual-word-paradigm/trials/subject-9.csv","2000","legacy","Melodramatic Milgram","4.0.13","False","mono","black","32","None","380","Pause. Look at the fixation dot in order to continue.","30000","-480","480","-480","480","270","270","-270","-270","1000","0","2","legacy","At the airport, the girl waited at the baggage claim.","500","1024","2","4.176000118255615","48000","-16","C:\Users\yarbus\AppData\Local\Temp\tmpvzxioa4h.opensesame_pool\47_baggage.ogg","baggage","rollercoaster","basketballhoop","croissant","baggage","rollercoaster","basketballhoop","croissant","experiment","baggage","9","odd","2756","BL","1243076.0","C:\Users\yarbus\Desktop\Team Cat\visual-word-paradigm\temp","1001729","1104382","1236195","995096","1236195","995161","1104381","1236127","1245076","NA","1243023","995139","1237234","1236160","1235884","NA","1238297","1109530","1236150","995130","experiment-visual-word-paradigm","1245076.0","waited","1593","wolf.mp4","1920"
"62_mathproblems.ogg","white","legacy","True","C:\Users\yarbus\Desktop\Team Cat\visual-word-paradigm\temp","legacy","legacy","motion","C:\Users\yarbus\Desktop\Team Cat\visual-word-paradigm\config.yml","0","0","14","0","14","0","0","14","14","0","14","0","14","14","14","0","14","0","14","0","28.653967465605906","50","Fri Jul 12 14:11:37 2024","20","The main experiment item","False","4196.000099182129","1109529","pygame-experiment-visual-world-paradigm.osexp","C:\Users\yarbus\Desktop\Team Cat\visual-word-paradigm","black","0","0","medium-open","1000","False","mono","False","32","no","black","no","yes","1080","62","Look at the screen and listen carefully. press any key to continue","True","mono","black","32","None","None","w","legacy","1","wolf","14","14","classroom","C:/Users/yarbus/Desktop/Team Cat/visual-word-paradigm/trials/subject-9.csv","2000","legacy","Melodramatic Milgram","4.0.13","False","mono","black","32","None","380","Pause. Look at the fixation dot in order to continue.","30000","-480","480","-480","480","270","270","-270","-270","1000","0","2","legacy","In the classroom, the girl solved math problems.","500","1024","2","3.696000099182129","48000","-16","C:\Users\yarbus\AppData\Local\Temp\tmpvzxioa4h.opensesame_pool\62_mathproblems.ogg","kite","math","bear","cookie","kite","math","bear","cookie","experiment","math","9","odd","2397","BR","1251893.0","C:\Users\yarbus\Desktop\Team Cat\visual-word-paradigm\temp","1001729","1104382","1245342","995096","1245342","995161","1104381","1245279","1253893","NA","1251843","995139","1246383","1245305","1245078","NA","1247519","1109530","1245302","995130","experiment-visual-word-paradigm","1253893.0","solved","1801","wolf.mp4","1920"
"28_rollercoaster.ogg","white","legacy","True","C:\Users\yarbus\Desktop\Team Cat\visual-word-paradigm\temp","legacy","legacy","static","C:\Users\yarbus\Desktop\Team Cat\visual-word-paradigm\config.yml","0","0","15","0","15","0","0","15","15","0","15","0","15","15","15","0","15","0","15","0","40.34640621021907","50","Fri Jul 12 14:11:37 2024","20","The main experiment item","False","4292.00005531311","1109529","pygame-experiment-visual-world-paradigm.osexp","C:\Users\yarbus\Desktop\Team Cat\visual-word-paradigm","black","0","0","medium-open","1000","False","mono","False","32","no","black","no","yes","1080","28","Look at the screen and listen carefully. press any key to continue","True","mono","black","32","None","None","w","legacy","1","wolf","15","15","carnival","C:/Users/yarbus/Desktop/Team Cat/visual-word-paradigm/trials/subject-9.csv","2000","legacy","Melodramatic Milgram","4.0.13","False","mono","black","32","None","380","Pause. Look at the fixation dot in order to continue.","30000","-480","480","-480","480","270","270","-270","-270","1000","0","2","legacy","At the carnival, the girl rode a roller coaster.","500","1024","2","3.7920000553131104","48000","-16","C:\Users\yarbus\AppData\Local\Temp\tmpvzxioa4h.opensesame_pool\28_rollercoaster.ogg","picnic","bust","videogame","rollercoaster","picnic","bust","videogame","rollercoaster","experiment","rollercoaster","9","odd","2229","TR","1260671.0","C:\Users\yarbus\Desktop\Team Cat\visual-word-paradigm\temp","1001729","1104382","1254166","995096","1254166","995161","1104381","1254100","1262689","NA","1260625","995139","1255207","1254133","1253896","NA","1256274","1109530","1254123","995130","experiment-visual-word-paradigm","1262671.0","rode","1651","wolf.mp4","1920"
"45_basketball.ogg","white","legacy","True","C:\Users\yarbus\Desktop\Team Cat\visual-word-paradigm\temp","legacy","legacy","motion","C:\Users\yarbus\Desktop\Team Cat\visual-word-paradigm\config.yml","0","0","16","0","16","0","0","16","16","0","16","0","16","16","16","0","16","0","16","0","26.11243775368344","50","Fri Jul 12 14:11:37 2024","20","The main experiment item","False","4196.000099182129","1109529","pygame-experiment-visual-world-paradigm.osexp","C:\Users\yarbus\Desktop\Team Cat\visual-word-paradigm","black","0","0","medium-open","1000","False","mono","False","32","no","black","no","yes","1080","45","Look at the screen and listen carefully. press any key to continue","True","mono","black","32","None","None","w","legacy","1","wolf","16","16","sports hall","C:/Users/yarbus/Desktop/Team Cat/visual-word-paradigm/trials/subject-9.csv","2000","legacy","Melodramatic Milgram","4.0.13","False","mono","black","32","None","380","Pause. Look at the fixation dot in order to continue.","30000","-480","480","-480","480","270","270","-270","-270","1000","0","2","legacy","At the sports hall, the girl played basketball.","500","1024","2","3.696000099182129","48000","-16","C:\Users\yarbus\AppData\Local\Temp\tmpvzxioa4h.opensesame_pool\45_basketball.ogg","basketball","mitten","clothes","boxtruck","basketball","mitten","clothes","boxtruck","experiment","basketball","9","odd","2613","BL","1269457.0","C:\Users\yarbus\Desktop\Team Cat\visual-word-paradigm\temp","1001729","1104382","1262967","995096","1262967","995161","1104381","1262902","1271457","NA","1269410","995139","1264002","1262926","1262702","NA","1265128","1109530","1262925","995130","experiment-visual-word-paradigm","1271457.0","played","1819","wolf.mp4","1920"
"05_cookie.ogg","white","legacy","True","C:\Users\yarbus\Desktop\Team Cat\visual-word-paradigm\temp","legacy","legacy","static","C:\Users\yarbus\Desktop\Team Cat\visual-word-paradigm\config.yml","0","0","17","0","17","0","0","17","17","0","17","0","17","17","17","0","17","0","17","0","42.7814501577495","50","Fri Jul 12 14:11:37 2024","20","The main experiment item","False","3907.9999923706055","1109529","pygame-experiment-visual-world-paradigm.osexp","C:\Users\yarbus\Desktop\Team Cat\visual-word-paradigm","black","0","0","medium-open","1000","False","mono","False","32","no","black","no","yes","1080","5","Look at the screen and listen carefully. press any key to continue","True","mono","black","32","None","None","w","legacy","1","wolf","17","17","breakfast","C:/Users/yarbus/Desktop/Team Cat/visual-word-paradigm/trials/subject-9.csv","2000","legacy","Melodramatic Milgram","4.0.13","False","mono","black","32","None","380","Pause. Look at the fixation dot in order to continue.","30000","-480","480","-480","480","270","270","-270","-270","1000","0","2","legacy","At breakfast, the girl ate a cookie.","500","1024","2","3.4079999923706055","48000","-16","C:\Users\yarbus\AppData\Local\Temp\tmpvzxioa4h.opensesame_pool\05_cookie.ogg","pants","nailclipper","cookie","movie","pants","nailclipper","cookie","movie","experiment","cookie","9","odd","2350","TL","1277850.0","C:\Users\yarbus\Desktop\Team Cat\visual-word-paradigm\temp","1001729","1104382","1271737","995096","1271737","995161","1104381","1271676","1279930","NA","1277807","995139","1272783","1271710","1271468","NA","1273845","1109530","1271699","995130","experiment-visual-word-paradigm","1279850.0","ate","1740","wolf.mp4","1920"
"43_car.ogg","white","legacy","True","C:\Users\yarbus\Desktop\Team Cat\visual-word-paradigm\temp","legacy","legacy","motion","C:\Users\yarbus\Desktop\Team Cat\visual-word-paradigm\config.yml","0","0","18","0","18","0","0","18","18","0","18","0","18","18","18","0","18","0","18","0","44.29192712538033","50","Fri Jul 12 14:11:37 2024","20","The main experiment item","False","3956.0000896453857","1109529","pygame-experiment-visual-world-paradigm.osexp","C:\Users\yarbus\Desktop\Team Cat\visual-word-paradigm","black","0","0","medium-open","1000","False","mono","False","32","no","black","no","yes","1080","43","Look at the screen and listen carefully. press any key to continue","True","mono","black","32","None","None","w","legacy","1","wolf","18","18","garage","C:/Users/yarbus/Desktop/Team Cat/visual-word-paradigm/trials/subject-9.csv","2000","legacy","Melodramatic Milgram","4.0.13","False","mono","black","32","None","380","Pause. Look at the fixation dot in order to continue.","30000","-480","480","-480","480","270","270","-270","-270","1000","0","2","legacy","In the garage, the girl washed her car.","500","1024","2","3.4560000896453857","48000","-16","C:\Users\yarbus\AppData\Local\Temp\tmpvzxioa4h.opensesame_pool\43_car.ogg","car","cd","brainmodel","bear","car","cd","brainmodel","bear","experiment","car","9","odd","2227","BL","1286507.0","C:\Users\yarbus\Desktop\Team Cat\visual-word-paradigm\temp","1001729","1104382","1280181","995096","1280181","995161","1104381","1280125","1288535","NA","1286461","995139","1281223","1280151","1279942","NA","1282379","1109530","1280149","995130","experiment-visual-word-paradigm","1288507.0","washed","1398","wolf.mp4","1920"
"07_clothes.ogg","white","legacy","True","C:\Users\yarbus\Desktop\Team Cat\visual-word-paradigm\temp","legacy","legacy","static","C:\Users\yarbus\Desktop\Team Cat\visual-word-paradigm\config.yml","0","0","19","0","19","0","0","19","19","0","19","0","19","19","19","0","19","0","19","0","36.16978872816373","50","Fri Jul 12 14:11:37 2024","20","The main experiment item","False","4388.000011444092","1109529","pygame-experiment-visual-world-paradigm.osexp","C:\Users\yarbus\Desktop\Team Cat\visual-word-paradigm","black","0","0","medium-open","1000","False","mono","False","32","no","black","no","yes","1080","7","Look at the screen and listen carefully. press any key to continue","True","mono","black","32","None","None","w","legacy","1","wolf","19","19","shopping mall","C:/Users/yarbus/Desktop/Team Cat/visual-word-paradigm/trials/subject-9.csv","2000","legacy","Melodramatic Milgram","4.0.13","False","mono","black","32","None","380","Pause. Look at the fixation dot in order to continue.","30000","-480","480","-480","480","270","270","-270","-270","1000","0","2","legacy","In the shopping mall, the girl shopped for clothes.","500","1024","2","3.888000011444092","48000","-16","C:\Users\yarbus\AppData\Local\Temp\tmpvzxioa4h.opensesame_pool\07_clothes.ogg","CD","flowers","clothes","cellphone","CD","flowers","clothes","cellphone","experiment","clothes","9","odd","2579","TL","1295405.0","C:\Users\yarbus\Desktop\Team Cat\visual-word-paradigm\temp","1001729","1104382","1288824","995096","1288824","995161","1104381","1288752","1297405","NA","1295357","995139","1289856","1288788","1288550","NA","1290920","1109530","1288775","995130","experiment-visual-word-paradigm","1297405.0","shopped","1703","wolf.mp4","1920"
"37_vegetables.ogg","white","legacy","True","C:\Users\yarbus\Desktop\Team Cat\visual-word-paradigm\temp","legacy","legacy","motion","C:\Users\yarbus\Desktop\Team Cat\visual-word-paradigm\config.yml","0","0","20","0","20","0","0","20","20","0","20","0","20","20","20","0","20","0","20","0","46.67368060052688","50","Fri Jul 12 14:11:37 2024","20","The main experiment item","False","4003.999948501587","1109529","pygame-experiment-visual-world-paradigm.osexp","C:\Users\yarbus\Desktop\Team Cat\visual-word-paradigm","black","0","0","medium-open","1000","False","mono","False","32","no","black","no","yes","1080","37","Look at the screen and listen carefully. press any key to continue","True","mono","black","32","None","None","w","legacy","1","wolf","20","20","market","C:/Users/yarbus/Desktop/Team Cat/visual-word-paradigm/trials/subject-9.csv","2000","legacy","Melodramatic Milgram","4.0.13","False","mono","black","32","None","380","Pause. Look at the fixation dot in order to continue.","30000","-480","480","-480","480","270","270","-270","-270","1000","0","2","legacy","At the market, the girl bought fresh vegetables.","500","1024","2","3.503999948501587","48000","-16","C:\Users\yarbus\AppData\Local\Temp\tmpvzxioa4h.opensesame_pool\37_vegetables.ogg","vegetables","pacifier","duck","bicycle","vegetables","pacifier","duck","bicycle","experiment","vegetables","9","odd","2344","BL","1303936.0","C:\Users\yarbus\Desktop\Team Cat\visual-word-paradigm\temp","1001729","1104382","1297691","995096","1297691","995161","1104381","1297612","1305963","NA","1303894","995139","1298729","1297652","1297418","NA","1299767","1109530","1297635","995130","experiment-visual-word-paradigm","1305936.0","bought","1606","wolf.mp4","1920"
"12_egg.ogg","white","legacy","True","C:\Users\yarbus\Desktop\Team Cat\visual-word-paradigm\temp","legacy","legacy","static","C:\Users\yarbus\Desktop\Team Cat\visual-word-paradigm\config.yml","0","0","21","0","21","0","0","21","21","0","21","0","21","21","21","0","21","0","21","0","49.47954695993082","50","Fri Jul 12 14:11:37 2024","20","The main experiment item","False","3763.9999389648438","1109529","pygame-experiment-visual-world-paradigm.osexp","C:\Users\yarbus\Desktop\Team Cat\visual-word-paradigm","black","0","0","medium-open","1000","False","mono","False","32","no","black","no","yes","1080","12","Look at the screen and listen carefully. press any key to continue","True","mono","black","32","None","None","w","legacy","1","wolf","21","21","farm","C:/Users/yarbus/Desktop/Team Cat/visual-word-paradigm/trials/subject-9.csv","2000","legacy","Melodramatic Milgram","4.0.13","False","mono","black","32","None","380","Pause. Look at the fixation dot in order to continue.","30000","-480","480","-480","480","270","270","-270","-270","1000","0","2","legacy","At the farm, the girl picked the egg. ","500","1024","2","3.2639999389648438","48000","-16","C:\Users\yarbus\AppData\Local\Temp\tmpvzxioa4h.opensesame_pool\12_egg.ogg","battery","videogame","egg","oven","battery","videogame","egg","oven","experiment","egg","9","odd","2263","TL","1312192.0","C:\Users\yarbus\Desktop\Team Cat\visual-word-paradigm\temp","1001729","1104382","1306235","995096","1306235","995161","1104381","1306169","1314192","NA","1312147","995139","1307277","1306207","1305978","NA","1308333","1109530","1306195","995130","experiment-visual-word-paradigm","1314192.0","picked","1380","wolf.mp4","1920"
"38_plants.ogg","white","legacy","True","C:\Users\yarbus\Desktop\Team Cat\visual-word-paradigm\temp","legacy","legacy","motion","C:\Users\yarbus\Desktop\Team Cat\visual-word-paradigm\config.yml","0","0","22","0","22","0","0","22","22","0","22","0","22","22","22","0","22","0","22","0","18.74216476290821","50","Fri Jul 12 14:11:37 2024","20","The main experiment item","False","4099.999904632568","1109529","pygame-experiment-visual-world-paradigm.osexp","C:\Users\yarbus\Desktop\Team Cat\visual-word-paradigm","black","0","0","medium-open","1000","False","mono","False","32","no","black","no","yes","1080","38","Look at the screen and listen carefully. press any key to continue","True","mono","black","32","None","None","w","legacy","1","wolf","22","22","backyard","C:/Users/yarbus/Desktop/Team Cat/visual-word-paradigm/trials/subject-9.csv","2000","legacy","Melodramatic Milgram","4.0.13","False","mono","black","32","None","380","Pause. Look at the fixation dot in order to continue.","30000","-480","480","-480","480","270","270","-270","-270","1000","0","2","legacy","In the backyard, the girl watered the plants.","500","1024","2","3.5999999046325684","48000","-16","C:\Users\yarbus\AppData\Local\Temp\tmpvzxioa4h.opensesame_pool\38_plants.ogg","plants","paintcan","brick","calendar","plants","paintcan","brick","calendar","experiment","plants","9","odd","2387","BL","1320793.0","C:\Users\yarbus\Desktop\Team Cat\visual-word-paradigm\temp","1001729","1104382","1314444","995096","1314444","995161","1104381","1314391","1322793","NA","1320747","995139","1315488","1314416","1314204","NA","1316547","1109530","1314414","995130","experiment-visual-word-paradigm","1322793.0","watered","1510","wolf.mp4","1920"
"27_treadmill.ogg","white","legacy","True","C:\Users\yarbus\Desktop\Team Cat\visual-word-paradigm\temp","legacy","legacy","static","C:\Users\yarbus\Desktop\Team Cat\visual-word-paradigm\config.yml","0","0","23","0","23","0","0","23","23","0","23","0","23","23","23","0","23","0","23","0","49.19985863394328","50","Fri Jul 12 14:11:37 2024","20","The main experiment item","False","4339.9999141693115","1109529","pygame-experiment-visual-world-paradigm.osexp","C:\Users\yarbus\Desktop\Team Cat\visual-word-paradigm","black","0","0","medium-open","1000","False","mono","False","32","no","black","no","yes","1080","27","Look at the screen and listen carefully. press any key to continue","True","mono","black","32","None","None","w","legacy","1","wolf","23","23","gym","C:/Users/yarbus/Desktop/Team Cat/visual-word-paradigm/trials/subject-9.csv","2000","legacy","Melodramatic Milgram","4.0.13","False","mono","black","32","None","380","Pause. Look at the fixation dot in order to continue.","30000","-480","480","-480","480","270","270","-270","-270","1000","0","2","legacy","At the gym, the girl ran on the treadmill.","500","1024","2","3.8399999141693115","48000","-16","C:\Users\yarbus\AppData\Local\Temp\tmpvzxioa4h.opensesame_pool\27_treadmill.ogg","oven","duck","belt","treadmill","oven","duck","belt","treadmill","experiment","treadmill","9","odd","2689","TR","1329605.0","C:\Users\yarbus\Desktop\Team Cat\visual-word-paradigm\temp","1001729","1104382","1323061","995096","1323061","995161","1104381","1322999","1331609","NA","1329553","995139","1324107","1323030","1322807","NA","1325162","1109530","1323022","995130","experiment-visual-word-paradigm","1331605.0","ran","1849","wolf.mp4","1920"
"01_apple.ogg","white","legacy","True","C:\Users\yarbus\Desktop\Team Cat\visual-word-paradigm\temp","legacy","legacy","static","C:\Users\yarbus\Desktop\Team Cat\visual-word-paradigm\config.yml","0","0","24","0","24","0","0","24","24","0","24","0","24","24","24","0","24","0","24","0","31.631493046013485","50","Fri Jul 12 14:11:37 2024","20","The main experiment item","False","3835.9999656677246","1109529","pygame-experiment-visual-world-paradigm.osexp","C:\Users\yarbus\Desktop\Team Cat\visual-word-paradigm","black","0","0","medium-open","1000","False","mono","False","32","no","black","no","yes","1080","1","Look at the screen and listen carefully. press any key to continue","True","mono","black","32","None","None","w","legacy","1","wolf","24","24","breakfast","C:/Users/yarbus/Desktop/Team Cat/visual-word-paradigm/trials/subject-9.csv","2000","legacy","Melodramatic Milgram","4.0.13","False","mono","black","32","None","380","Pause. Look at the fixation dot in order to continue.","30000","-480","480","-480","480","270","270","-270","-270","1000","0","2","legacy"," At breakfast, I usually eat an apple.","500","1024","2","3.3359999656677246","48000","-16","C:\Users\yarbus\AppData\Local\Temp\tmpvzxioa4h.opensesame_pool\01_apple.ogg","pool","wolf","apple","archery","pool","wolf","apple","archery","experiment","apple","9","odd","2696","TL","1337911.0","C:\Users\yarbus\Desktop\Team Cat\visual-word-paradigm\temp","1001729","1104382","1331873","995096","1331873","995161","1104381","1331808","1339955","NA","1337865","995139","1332920","1331837","1331621","NA","1333984","1109530","1331836","995130","experiment-visual-word-paradigm","1339911.0","eat","1657","wolf.mp4","1920"
"29_ferriswheel.ogg","white","legacy","True","C:\Users\yarbus\Desktop\Team Cat\visual-word-paradigm\temp","legacy","legacy","static","C:\Users\yarbus\Desktop\Team Cat\visual-word-paradigm\config.yml","0","0","25","0","25","0","0","25","25","0","25","0","25","25","25","0","25","0","25","0","15.99197031012745","50","Fri Jul 12 14:11:37 2024","20","The main experiment item","False","4843.999862670898","1109529","pygame-experiment-visual-world-paradigm.osexp","C:\Users\yarbus\Desktop\Team Cat\visual-word-paradigm","black","0","0","medium-open","1000","False","mono","False","32","no","black","no","yes","1080","29","Look at the screen and listen carefully. press any key to continue","True","mono","black","32","None","None","w","legacy","1","wolf","25","25","carnival","C:/Users/yarbus/Desktop/Team Cat/visual-word-paradigm/trials/subject-9.csv","2000","legacy","Melodramatic Milgram","4.0.13","False","mono","black","32","None","380","Pause. Look at the fixation dot in order to continue.","30000","-480","480","-480","480","270","270","-270","-270","1000","0","2","legacy","At the carnival, the girl rode on a Ferris wheel.","500","1024","2","4.343999862670898","48000","-16","C:\Users\yarbus\AppData\Local\Temp\tmpvzxioa4h.opensesame_pool\29_ferriswheel.ogg","vegetables","button","paperclip","ferriswheel","vegetables","button","paperclip","ferriswheel","experiment","ferriswheel","9","odd","3120","TR","1347276.0","C:\Users\yarbus\Desktop\Team Cat\visual-word-paradigm\temp","1001729","1104382","1340223","995096","1340223","995161","1104381","1340152","1349276","NA","1347231","995139","1341273","1340187","1339956","NA","1342331","1109530","1340175","995130","experiment-visual-word-paradigm","1349276.0","rode","1662","wolf.mp4","1920"
"50_cactus.ogg","white","legacy","True","C:\Users\yarbus\Desktop\Team Cat\visual-word-paradigm\temp","legacy","legacy","motion","C:\Users\yarbus\Desktop\Team Cat\visual-word-paradigm\config.yml","0","0","26","0","26","0","0","26","26","0","26","0","26","26","26","0","26","0","26","0","34.99003996568169","50","Fri Jul 12 14:11:37 2024","20","The main experiment item","False","5179.999828338623","1109529","pygame-experiment-visual-world-paradigm.osexp","C:\Users\yarbus\Desktop\Team Cat\visual-word-paradigm","black","0","0","medium-open","1000","False","mono","False","32","no","black","no","yes","1080","50","Look at the screen and listen carefully. press any key to continue","True","mono","black","32","None","None","w","legacy","1","wolf","26","26","botanical garden","C:/Users/yarbus/Desktop/Team Cat/visual-word-paradigm/trials/subject-9.csv","2000","legacy","Melodramatic Milgram","4.0.13","False","mono","black","32","None","380","Pause. Look at the fixation dot in order to continue.","30000","-480","480","-480","480","270","270","-270","-270","1000","0","2","legacy","In the botanical garden, the girl got stung by a cactus.","500","1024","2","4.679999828338623","48000","-16","C:\Users\yarbus\AppData\Local\Temp\tmpvzxioa4h.opensesame_pool\50_cactus.ogg","card","cactus","bear","pacifier","card","cactus","bear","pacifier","experiment","cactus","9","odd","3287","BR","1357038.0","C:\Users\yarbus\Desktop\Team Cat\visual-word-paradigm\temp","1001729","1104382","1349542","995096","1349542","995161","1104381","1349485","1359038","NA","1356998","995139","1350588","1349509","1349288","NA","1351729","1109530","1349508","995130","experiment-visual-word-paradigm","1359038.0","stung","2326","wolf.mp4","1920"
"02_horse.ogg","white","legacy","True","C:\Users\yarbus\Desktop\Team Cat\visual-word-paradigm\temp","legacy","legacy","static","C:\Users\yarbus\Desktop\Team Cat\visual-word-paradigm\config.yml","0","0","27","0","27","0","0","27","27","0","27","0","27","27","27","0","27","0","27","0","49.58492473484256","50","Fri Jul 12 14:11:37 2024","20","The main experiment item","False","3931.999921798706","1109529","pygame-experiment-visual-world-paradigm.osexp","C:\Users\yarbus\Desktop\Team Cat\visual-word-paradigm","black","0","0","medium-open","1000","False","mono","False","32","no","black","no","yes","1080","2","Look at the screen and listen carefully. press any key to continue","True","mono","black","32","None","None","w","legacy","1","wolf","27","27","countryside","C:/Users/yarbus/Desktop/Team Cat/visual-word-paradigm/trials/subject-9.csv","2000","legacy","Melodramatic Milgram","4.0.13","False","mono","black","32","None","380","Pause. Look at the fixation dot in order to continue.","30000","-480","480","-480","480","270","270","-270","-270","1000","0","2","legacy","In the countryside, the girl rode a horse.","500","1024","2","3.431999921798706","48000","-16","C:\Users\yarbus\AppData\Local\Temp\tmpvzxioa4h.opensesame_pool\02_horse.ogg","paperclip","oven","horse","novel","paperclip","oven","horse","novel","experiment","horse","9","odd","2600","TL","1365439.0","C:\Users\yarbus\Desktop\Team Cat\visual-word-paradigm\temp","1001729","1104382","1359301","995096","1359301","995161","1104381","1359239","1367439","NA","1365390","995139","1360347","1359279","1359051","NA","1361408","1109530","1359266","995130","experiment-visual-word-paradigm","1367439.0","rode","1655","wolf.mp4","1920"
"41_drinks.ogg","white","legacy","True","C:\Users\yarbus\Desktop\Team Cat\visual-word-paradigm\temp","legacy","legacy","motion","C:\Users\yarbus\Desktop\Team Cat\visual-word-paradigm\config.yml","0","0","28","0","28","0","0","28","28","0","28","0","28","28","28","0","28","0","28","0","14.4981060059582","50","Fri Jul 12 14:11:37 2024","20","The main experiment item","False","4075.999975204468","1109529","pygame-experiment-visual-world-paradigm.osexp","C:\Users\yarbus\Desktop\Team Cat\visual-word-paradigm","black","0","0","medium-open","1000","False","mono","False","32","no","black","no","yes","1080","41","Look at the screen and listen carefully. press any key to continue","True","mono","black","32","None","None","w","legacy","1","wolf","28","28","party","C:/Users/yarbus/Desktop/Team Cat/visual-word-paradigm/trials/subject-9.csv","2000","legacy","Melodramatic Milgram","4.0.13","False","mono","black","32","None","380","Pause. Look at the fixation dot in order to continue.","30000","-480","480","-480","480","270","270","-270","-270","1000","0","2","legacy","At the party, the girl served drinks to the guests.","500","1024","2","3.5759999752044678","48000","-16","C:\Users\yarbus\AppData\Local\Temp\tmpvzxioa4h.opensesame_pool\41_drinks.ogg","drinks","nailclipper","cats","shoppingcart","drinks","nailclipper","cats","shoppingcart","experiment","drinks","9","odd","2115","BL","1373987.0","C:\Users\yarbus\Desktop\Team Cat\visual-word-paradigm\temp","1001729","1104382","1367690","995096","1367690","995161","1104381","1367627","1375987","NA","1373943","995139","1368737","1367660","1367450","NA","1369811","1109530","1367650","995130","experiment-visual-word-paradigm","1375987.0","served","1333","wolf.mp4","1920"
"15_keyboard.ogg","white","legacy","True","C:\Users\yarbus\Desktop\Team Cat\visual-word-paradigm\temp","legacy","legacy","static","C:\Users\yarbus\Desktop\Team Cat\visual-word-paradigm\config.yml","0","0","29","0","29","0","0","29","29","0","29","0","29","29","29","0","29","0","29","0","42.027710447275076","50","Fri Jul 12 14:11:37 2024","20","The main experiment item","False","4196.000099182129","1109529","pygame-experiment-visual-world-paradigm.osexp","C:\Users\yarbus\Desktop\Team Cat\visual-word-paradigm","black","0","0","medium-open","1000","False","mono","False","32","no","black","no","yes","1080","15","Look at the screen and listen carefully. press any key to continue","True","mono","black","32","None","None","w","legacy","1","wolf","29","29","desk","C:/Users/yarbus/Desktop/Team Cat/visual-word-paradigm/trials/subject-9.csv","2000","legacy","Melodramatic Milgram","4.0.13","False","mono","black","32","None","380","Pause. Look at the fixation dot in order to continue.","30000","-480","480","-480","480","270","270","-270","-270","1000","0","2","legacy","At her desk, the girl typed on the keyboard.","500","1024","2","3.696000099182129","48000","-16","C:\Users\yarbus\AppData\Local\Temp\tmpvzxioa4h.opensesame_pool\15_keyboard.ogg","paintcan","sofa","keyboard","bowl","paintcan","sofa","keyboard","bowl","experiment","keyboard","9","odd","2111","TL","1382665.0","C:\Users\yarbus\Desktop\Team Cat\visual-word-paradigm\temp","1001729","1104382","1376254","995096","1376254","995161","1104381","1376189","1384665","NA","1382622","995139","1377296","1376219","1375998","NA","1378367","1109530","1376212","995130","experiment-visual-word-paradigm","1384665.0","typed","1500","wolf.mp4","1920"
"04_banana.ogg","white","legacy","True","C:\Users\yarbus\Desktop\Team Cat\visual-word-paradigm\temp","legacy","legacy","static","C:\Users\yarbus\Desktop\Team Cat\visual-word-paradigm\config.yml","0","0","30","0","30","0","0","30","30","0","30","0","30","30","30","0","30","0","30","0","43.555999353476004","50","Fri Jul 12 14:11:37 2024","20","The main experiment item","False","4003.999948501587","1109529","pygame-experiment-visual-world-paradigm.osexp","C:\Users\yarbus\Desktop\Team Cat\visual-word-paradigm","black","0","0","medium-open","1000","False","mono","False","32","no","black","no","yes","1080","4","Look at the screen and listen carefully. press any key to continue","True","mono","black","32","None","None","w","legacy","1","wolf","30","30","breakfast","C:/Users/yarbus/Desktop/Team Cat/visual-word-paradigm/trials/subject-9.csv","2000","legacy","Melodramatic Milgram","4.0.13","False","mono","black","32","None","380","Pause. Look at the fixation dot in order to continue.","30000","-480","480","-480","480","270","270","-270","-270","1000","0","2","legacy","At breakfast, the girl ate a banana.","500","1024","2","3.503999948501587","48000","-16","C:\Users\yarbus\AppData\Local\Temp\tmpvzxioa4h.opensesame_pool\04_banana.ogg","pants","videogame","banana","clothes","pants","videogame","banana","clothes","experiment","banana","9","odd","2500","TL","1391128.0","C:\Users\yarbus\Desktop\Team Cat\visual-word-paradigm\temp","1001729","1104382","1384930","995096","1384930","995161","1104381","1384862","1393128","NA","1391083","995139","1385970","1384898","1384677","NA","1387031","1109530","1384896","995130","experiment-visual-word-paradigm","1393128.0","ate","1770","wolf.mp4","1920"
"39_clothes.ogg","white","legacy","True","C:\Users\yarbus\Desktop\Team Cat\visual-word-paradigm\temp","legacy","legacy","motion","C:\Users\yarbus\Desktop\Team Cat\visual-word-paradigm\config.yml","0","0","31","0","31","0","0","31","31","0","31","0","31","31","31","0","31","0","31","0","47.45442495194729","50","Fri Jul 12 14:11:37 2024","20","The main experiment item","False","4243.99995803833","1109529","pygame-experiment-visual-world-paradigm.osexp","C:\Users\yarbus\Desktop\Team Cat\visual-word-paradigm","black","0","0","medium-open","1000","False","mono","False","32","no","black","no","yes","1080","39","Look at the screen and listen carefully. press any key to continue","True","mono","black","32","None","None","w","legacy","1","wolf","31","31","laundromat","C:/Users/yarbus/Desktop/Team Cat/visual-word-paradigm/trials/subject-9.csv","2000","legacy","Melodramatic Milgram","4.0.13","False","mono","black","32","None","380","Pause. Look at the fixation dot in order to continue.","30000","-480","480","-480","480","270","270","-270","-270","1000","0","2","legacy","At the laundromat, the girl washed her clothes.","500","1024","2","3.74399995803833","48000","-16","C:\Users\yarbus\AppData\Local\Temp\tmpvzxioa4h.opensesame_pool\39_clothes.ogg","clothes","bookshelf","horse","armchair","clothes","bookshelf","horse","armchair","experiment","clothes","9","odd","2812","BL","1399964.0","C:\Users\yarbus\Desktop\Team Cat\visual-word-paradigm\temp","1001729","1104382","1393398","995096","1393398","995161","1104381","1393329","1403788","NA","1399918","995139","1394438","1393364","1393131","NA","1395561","1109530","1393353","995130","experiment-visual-word-paradigm","1401964.0","washed","2027","wolf.mp4","1920"
"14_card.ogg","white","legacy","True","C:\Users\yarbus\Desktop\Team Cat\visual-word-paradigm\temp","legacy","legacy","static","C:\Users\yarbus\Desktop\Team Cat\visual-word-paradigm\config.yml","0","0","32","0","32","0","0","32","32","0","32","0","32","32","32","0","32","0","32","0","37.44382134344732","50","Fri Jul 12 14:11:37 2024","20","The main experiment item","False","4075.999975204468","1109529","pygame-experiment-visual-world-paradigm.osexp","C:\Users\yarbus\Desktop\Team Cat\visual-word-paradigm","black","0","0","medium-open","1000","False","mono","False","32","no","black","no","yes","1080","14","Look at the screen and listen carefully. press any key to continue","True","mono","black","32","None","None","w","legacy","1","wolf","32","32","casino","C:/Users/yarbus/Desktop/Team Cat/visual-word-paradigm/trials/subject-9.csv","2000","legacy","Melodramatic Milgram","4.0.13","False","mono","black","32","None","380","Pause. Look at the fixation dot in order to continue.","30000","-480","480","-480","480","270","270","-270","-270","1000","0","2","legacy","At the casino, the girl picked a card. ","500","1024","2","3.5759999752044678","48000","-16","C:\Users\yarbus\AppData\Local\Temp\tmpvzxioa4h.opensesame_pool\14_card.ogg","vegetables","sandcastle","card","parkfountain","vegetables","sandcastle","card","parkfountain","experiment","card","9","odd","2672","TL","1410528.0","C:\Users\yarbus\Desktop\Team Cat\visual-word-paradigm\temp","1001729","1104382","1404231","995096","1404232","995161","1104381","1404152","1412528","NA","1410478","995139","1405278","1404178","1403801","NA","1406327","1109530","1404175","995130","experiment-visual-word-paradigm","1412528.0","picked","2075","wolf.mp4","1920"
"22_dog.ogg","white","legacy","True","C:\Users\yarbus\Desktop\Team Cat\visual-word-paradigm\temp","legacy","legacy","static","C:\Users\yarbus\Desktop\Team Cat\visual-word-paradigm\config.yml","0","0","33","0","33","0","0","33","33","0","33","0","33","33","33","0","33","0","33","0","29.669125795007805","50","Fri Jul 12 14:11:37 2024","20","The main experiment item","False","3523.9999294281006","1109529","pygame-experiment-visual-world-paradigm.osexp","C:\Users\yarbus\Desktop\Team Cat\visual-word-paradigm","black","0","0","medium-open","1000","False","mono","False","32","no","black","no","yes","1080","22","Look at the screen and listen carefully. press any key to continue","True","mono","black","32","None","None","w","legacy","1","wolf","33","33","park","C:/Users/yarbus/Desktop/Team Cat/visual-word-paradigm/trials/subject-9.csv","2000","legacy","Melodramatic Milgram","4.0.13","False","mono","black","32","None","380","Pause. Look at the fixation dot in order to continue.","30000","-480","480","-480","480","270","270","-270","-270","1000","0","2","legacy","At the park, the girl walked a dog. ","500","1024","2","3.0239999294281006","48000","-16","C:\Users\yarbus\AppData\Local\Temp\tmpvzxioa4h.opensesame_pool\22_dog.ogg","calculator","mitten","button","dog","calculator","mitten","button","dog","experiment","dog","9","odd","2241","TR","1418515.0","C:\Users\yarbus\Desktop\Team Cat\visual-word-paradigm\temp","1001729","1104382","1412793","995096","1412793","995161","1104381","1412720","1420515","NA","1418465","995139","1413835","1412756","1412530","NA","1414893","1109530","1412746","995130","experiment-visual-word-paradigm","1420515.0","walked","1379","wolf.mp4","1920"
"42_bicycle.ogg","white","legacy","True","C:\Users\yarbus\Desktop\Team Cat\visual-word-paradigm\temp","legacy","legacy","motion","C:\Users\yarbus\Desktop\Team Cat\visual-word-paradigm\config.yml","0","0","34","0","34","0","0","34","34","0","34","0","34","34","34","0","34","0","34","0","19.30955736416547","50","Fri Jul 12 14:11:37 2024","20","The main experiment item","False","4292.00005531311","1109529","pygame-experiment-visual-world-paradigm.osexp","C:\Users\yarbus\Desktop\Team Cat\visual-word-paradigm","black","0","0","medium-open","1000","False","mono","False","32","no","black","no","yes","1080","42","Look at the screen and listen carefully. press any key to continue","True","mono","black","32","None","None","w","legacy","1","wolf","34","34","garage","C:/Users/yarbus/Desktop/Team Cat/visual-word-paradigm/trials/subject-9.csv","2000","legacy","Melodramatic Milgram","4.0.13","False","mono","black","32","None","380","Pause. Look at the fixation dot in order to continue.","30000","-480","480","-480","480","270","270","-270","-270","1000","0","2","legacy","In the garage, the girl fixed her bicycle.","500","1024","2","3.7920000553131104","48000","-16","C:\Users\yarbus\AppData\Local\Temp\tmpvzxioa4h.opensesame_pool\42_bicycle.ogg","bicycle","clothes","patioumbrella","card","bicycle","clothes","patioumbrella","card","experiment","bicycle","9","odd","2516","BL","1427299.0","C:\Users\yarbus\Desktop\Team Cat\visual-word-paradigm\temp","1001729","1104382","1420757","995096","1420757","995161","1104381","1420699","1429349","NA","1427261","995139","1421807","1420723","1420518","NA","1422850","1109530","1420722","995130","experiment-visual-word-paradigm","1429299.0","fixed","1627","wolf.mp4","1920"
"64_cats.ogg","white","legacy","True","C:\Users\yarbus\Desktop\Team Cat\visual-word-paradigm\temp","legacy","legacy","motion","C:\Users\yarbus\Desktop\Team Cat\visual-word-paradigm\config.yml","0","0","35","0","35","0","0","35","35","0","35","0","35","35","35","0","35","0","35","0","47.920000914858086","50","Fri Jul 12 14:11:37 2024","20","The main experiment item","False","4676.000118255615","1109529","pygame-experiment-visual-world-paradigm.osexp","C:\Users\yarbus\Desktop\Team Cat\visual-word-paradigm","black","0","0","medium-open","1000","False","mono","False","32","no","black","no","yes","1080","64","Look at the screen and listen carefully. press any key to continue","True","mono","black","32","None","None","w","legacy","1","wolf","35","35","pet store","C:/Users/yarbus/Desktop/Team Cat/visual-word-paradigm/trials/subject-9.csv","2000","legacy","Melodramatic Milgram","4.0.13","False","mono","black","32","None","380","Pause. Look at the fixation dot in order to continue.","30000","-480","480","-480","480","270","270","-270","-270","1000","0","2","legacy","At the pet store, the girl cuddled with adorable cats.","500","1024","2","4.176000118255615","48000","-16","C:\Users\yarbus\AppData\Local\Temp\tmpvzxioa4h.opensesame_pool\64_cats.ogg","battery","cats","paperairplane","ceilingfan","battery","cats","paperairplane","ceilingfan","experiment","cats","9","odd","3384","BR","1436656.0","C:\Users\yarbus\Desktop\Team Cat\visual-word-paradigm\temp","1001729","1104382","1429623","995096","1429623","995161","1104381","1429556","1438696","NA","1436609","995139","1430676","1429589","1429361","NA","1431814","1109530","1429579","995130","experiment-visual-word-paradigm","1438656.0","cuddled","1510","wolf.mp4","1920"
"53_darts.ogg","white","legacy","True","C:\Users\yarbus\Desktop\Team Cat\visual-word-paradigm\temp","legacy","legacy","motion","C:\Users\yarbus\Desktop\Team Cat\visual-word-paradigm\config.yml","0","0","36","0","36","0","0","36","36","0","36","0","36","36","36","0","36","0","36","0","27.241497579979015","50","Fri Jul 12 14:11:37 2024","20","The main experiment item","False","3907.9999923706055","1109529","pygame-experiment-visual-world-paradigm.osexp","C:\Users\yarbus\Desktop\Team Cat\visual-word-paradigm","black","0","0","medium-open","1000","False","mono","False","32","no","black","no","yes","1080","53","Look at the screen and listen carefully. press any key to continue","True","mono","black","32","None","None","w","legacy","1","wolf","36","36","bar","C:/Users/yarbus/Desktop/Team Cat/visual-word-paradigm/trials/subject-9.csv","2000","legacy","Melodramatic Milgram","4.0.13","False","mono","black","32","None","380","Pause. Look at the fixation dot in order to continue.","30000","-480","480","-480","480","270","270","-270","-270","1000","0","2","legacy","In the bar, the girl played darts. ","500","1024","2","3.4079999923706055","48000","-16","C:\Users\yarbus\AppData\Local\Temp\tmpvzxioa4h.opensesame_pool\53_darts.ogg","dog","dart","popcorn","shoppingcart","dog","dart","popcorn","shoppingcart","experiment","dart","9","odd","2809","BR","1445106.0","C:\Users\yarbus\Desktop\Team Cat\visual-word-paradigm\temp","1001729","1104382","1438973","995096","1438973","995161","1104381","1438904","1447106","NA","1445064","995139","1440020","1438940","1438710","NA","1441069","1109530","1438927","995130","experiment-visual-word-paradigm","1447106.0","played","1930","wolf.mp4","1920"
"20_seashells.ogg","white","legacy","True","C:\Users\yarbus\Desktop\Team Cat\visual-word-paradigm\temp","legacy","legacy","static","C:\Users\yarbus\Desktop\Team Cat\visual-word-paradigm\config.yml","0","0","37","0","37","0","0","37","37","0","37","0","37","37","37","0","37","0","37","0","20.282257329991683","50","Fri Jul 12 14:11:37 2024","20","The main experiment item","False","3980.0000190734863","1109529","pygame-experiment-visual-world-paradigm.osexp","C:\Users\yarbus\Desktop\Team Cat\visual-word-paradigm","black","0","0","medium-open","1000","False","mono","False","32","no","black","no","yes","1080","20","Look at the screen and listen carefully. press any key to continue","True","mono","black","32","None","None","w","legacy","1","wolf","37","37","beach","C:/Users/yarbus/Desktop/Team Cat/visual-word-paradigm/trials/subject-9.csv","2000","legacy","Melodramatic Milgram","4.0.13","False","mono","black","32","None","380","Pause. Look at the fixation dot in order to continue.","30000","-480","480","-480","480","270","270","-270","-270","1000","0","2","legacy","At the beach, the girl collected seashells.","500","1024","2","3.4800000190734863","48000","-16","C:\Users\yarbus\AppData\Local\Temp\tmpvzxioa4h.opensesame_pool\20_seashells.ogg","documents","basketballhoop","apple","seashells","documents","basketballhoop","apple","seashells","experiment","seashells","9","odd","2070","TR","1453572.0","C:\Users\yarbus\Desktop\Team Cat\visual-word-paradigm\temp","1001729","1104382","1447388","995096","1447388","995161","1104381","1447320","1455572","NA","1453531","995139","1448430","1447355","1447119","NA","1449496","1109530","1447343","995130","experiment-visual-word-paradigm","1455572.0","built","1300","wolf.mp4","1920"
"52_pool.ogg","white","legacy","True","C:\Users\yarbus\Desktop\Team Cat\visual-word-paradigm\temp","legacy","legacy","motion","C:\Users\yarbus\Desktop\Team Cat\visual-word-paradigm\config.yml","0","0","38","0","38","0","0","38","38","0","38","0","38","38","38","0","38","0","38","0","35.31634146623911","50","Fri Jul 12 14:11:37 2024","20","The main experiment item","False","3548.0000972747803","1109529","pygame-experiment-visual-world-paradigm.osexp","C:\Users\yarbus\Desktop\Team Cat\visual-word-paradigm","black","0","0","medium-open","1000","False","mono","False","32","no","black","no","yes","1080","52","Look at the screen and listen carefully. press any key to continue","True","mono","black","32","None","None","w","legacy","1","wolf","38","38","bar","C:/Users/yarbus/Desktop/Team Cat/visual-word-paradigm/trials/subject-9.csv","2000","legacy","Melodramatic Milgram","4.0.13","False","mono","black","32","None","380","Pause. Look at the fixation dot in order to continue.","30000","-480","480","-480","480","270","270","-270","-270","1000","0","2","legacy","In the bar, the girl played pool.","500","1024","2","3.0480000972747803","48000","-16","C:\Users\yarbus\AppData\Local\Temp\tmpvzxioa4h.opensesame_pool\52_pool.ogg","paperairplane","pool","calculator","dance","paperairplane","pool","calculator","dance","experiment","pool","9","odd","1993","BR","1461680.0","C:\Users\yarbus\Desktop\Team Cat\visual-word-paradigm\temp","1001729","1104382","1455817","995096","1455817","995161","1104381","1455759","1463680","NA","1461630","995139","1456859","1455791","1455576","NA","1457996","1109530","1455784","995130","experiment-visual-word-paradigm","1463680.0","played","1298","wolf.mp4","1920"
"54_cd.ogg","white","legacy","True","C:\Users\yarbus\Desktop\Team Cat\visual-word-paradigm\temp","legacy","legacy","motion","C:\Users\yarbus\Desktop\Team Cat\visual-word-paradigm\config.yml","0","0","39","0","39","0","0","39","39","0","39","0","39","39","39","0","39","0","39","0","32.385807380394255","50","Fri Jul 12 14:11:37 2024","20","The main experiment item","False","4099.999904632568","1109529","pygame-experiment-visual-world-paradigm.osexp","C:\Users\yarbus\Desktop\Team Cat\visual-word-paradigm","black","0","0","medium-open","1000","False","mono","False","32","no","black","no","yes","1080","54","Look at the screen and listen carefully. press any key to continue","True","mono","black","32","None","None","w","legacy","1","wolf","39","39","car","C:/Users/yarbus/Desktop/Team Cat/visual-word-paradigm/trials/subject-9.csv","2000","legacy","Melodramatic Milgram","4.0.13","False","mono","black","32","None","380","Pause. Look at the fixation dot in order to continue.","30000","-480","480","-480","480","270","270","-270","-270","1000","0","2","legacy","In the car, the girl listened to a CD.","500","1024","2","3.5999999046325684","48000","-16","C:\Users\yarbus\AppData\Local\Temp\tmpvzxioa4h.opensesame_pool\54_cd.ogg","moon","cd","ceilingfan","brick","moon","cd","ceilingfan","brick","experiment","cd","9","odd","2643","BR","1470390.0","C:\Users\yarbus\Desktop\Team Cat\visual-word-paradigm\temp","1001729","1104382","1463941","995096","1463941","995161","1104381","1463875","1472390","NA","1470344","995139","1464987","1463905","1463692","NA","1466115","1109530","1463898","995130","experiment-visual-word-paradigm","1472390.0","listened","1529","wolf.mp4","1920"
"10_guitar.ogg","white","legacy","True","C:\Users\yarbus\Desktop\Team Cat\visual-word-paradigm\temp","legacy","legacy","static","C:\Users\yarbus\Desktop\Team Cat\visual-word-paradigm\config.yml","0","0","40","0","40","0","0","40","40","0","40","0","40","40","40","0","40","0","40","0","49.165328563938154","50","Fri Jul 12 14:11:37 2024","20","The main experiment item","False","4220.0000286102295","1109529","pygame-experiment-visual-world-paradigm.osexp","C:\Users\yarbus\Desktop\Team Cat\visual-word-paradigm","black","0","0","medium-open","1000","False","mono","False","32","no","black","no","yes","1080","10","Look at the screen and listen carefully. press any key to continue","True","mono","black","32","None","None","w","legacy","1","wolf","40","40","musical class","C:/Users/yarbus/Desktop/Team Cat/visual-word-paradigm/trials/subject-9.csv","2000","legacy","Melodramatic Milgram","4.0.13","False","mono","black","32","None","380","Pause. Look at the fixation dot in order to continue.","30000","-480","480","-480","480","270","270","-270","-270","1000","0","2","legacy","During musical class, the girl played guitar. ","500","1024","2","3.7200000286102295","48000","-16","C:\Users\yarbus\AppData\Local\Temp\tmpvzxioa4h.opensesame_pool\10_guitar.ogg","chicken","bowl","guitar","hiking","chicken","bowl","guitar","hiking","experiment","guitar","9","odd","2750","TL","1479080.0","C:\Users\yarbus\Desktop\Team Cat\visual-word-paradigm\temp","1001729","1104382","1472661","995096","1472661","995161","1104381","1472598","1481145","NA","1479036","995139","1473711","1472628","1472404","NA","1474761","1109530","1472621","995130","experiment-visual-word-paradigm","1481080.0","played","1897","wolf.mp4","1920"
"55_frisbee.ogg","white","legacy","True","C:\Users\yarbus\Desktop\Team Cat\visual-word-paradigm\temp","legacy","legacy","motion","C:\Users\yarbus\Desktop\Team Cat\visual-word-paradigm\config.yml","0","0","41","0","41","0","0","41","41","0","41","0","41","41","41","0","41","0","41","0","19.78070423417733","50","Fri Jul 12 14:11:37 2024","20","The main experiment item","False","3716.0000801086426","1109529","pygame-experiment-visual-world-paradigm.osexp","C:\Users\yarbus\Desktop\Team Cat\visual-word-paradigm","black","0","0","medium-open","1000","False","mono","False","32","no","black","no","yes","1080","55","Look at the screen and listen carefully. press any key to continue","True","mono","black","32","None","None","w","legacy","1","wolf","41","41","grass","C:/Users/yarbus/Desktop/Team Cat/visual-word-paradigm/trials/subject-9.csv","2000","legacy","Melodramatic Milgram","4.0.13","False","mono","black","32","None","380","Pause. Look at the fixation dot in order to continue.","30000","-480","480","-480","480","270","270","-270","-270","1000","0","2","legacy","On the grass, the girl played frisbee.","500","1024","2","3.2160000801086426","48000","-16","C:\Users\yarbus\AppData\Local\Temp\tmpvzxioa4h.opensesame_pool\55_frisbee.ogg","car","frisbee","math","rollercoaster","car","frisbee","math","rollercoaster","experiment","frisbee","9","odd","2036","BR","1487425.0","C:\Users\yarbus\Desktop\Team Cat\visual-word-paradigm\temp","1001729","1104382","1481422","995096","1481422","995161","1104381","1481360","1489425","NA","1487376","995139","1482466","1481390","1481171","NA","1483592","1109530","1481383","995130","experiment-visual-word-paradigm","1489425.0","played","1742","wolf.mp4","1920"
"19_sandcastle.ogg","white","legacy","True","C:\Users\yarbus\Desktop\Team Cat\visual-word-paradigm\temp","legacy","legacy","static","C:\Users\yarbus\Desktop\Team Cat\visual-word-paradigm\config.yml","0","0","42","0","42","0","0","42","42","0","42","0","42","42","42","0","42","0","42","0","37.15387654175539","50","Fri Jul 12 14:11:37 2024","20","The main experiment item","False","3476.0000705718994","1109529","pygame-experiment-visual-world-paradigm.osexp","C:\Users\yarbus\Desktop\Team Cat\visual-word-paradigm","black","0","0","medium-open","1000","False","mono","False","32","no","black","no","yes","1080","19","Look at the screen and listen carefully. press any key to continue","True","mono","black","32","None","None","w","legacy","1","wolf","42","42","beach","C:/Users/yarbus/Desktop/Team Cat/visual-word-paradigm/trials/subject-9.csv","2000","legacy","Melodramatic Milgram","4.0.13","False","mono","black","32","None","380","Pause. Look at the fixation dot in order to continue.","30000","-480","480","-480","480","270","270","-270","-270","1000","0","2","legacy","At the beach, the girl built a sandcastle.","500","1024","2","2.9760000705718994","48000","-16","C:\Users\yarbus\AppData\Local\Temp\tmpvzxioa4h.opensesame_pool\19_sandcastle.ogg","meditation","dart","math","sandcastle","meditation","dart","math","sandcastle","experiment","sandcastle","9","odd","1787","TR","1495352.0","C:\Users\yarbus\Desktop\Team Cat\visual-word-paradigm\temp","1001729","1104382","1489690","995096","1489690","995161","1104381","1489629","1497525","NA","1495300","995139","1490730","1489655","1489426","NA","1491772","1109530","1489652","995130","experiment-visual-word-paradigm","1497352.0","built","1169","wolf.mp4","1920"
"36_marathon.ogg","white","legacy","True","C:\Users\yarbus\Desktop\Team Cat\visual-word-paradigm\temp","legacy","legacy","motion","C:\Users\yarbus\Desktop\Team Cat\visual-word-paradigm\config.yml","0","0","43","0","43","0","0","43","43","0","43","0","43","43","43","0","43","0","43","0","2.032811334088818","50","Fri Jul 12 14:11:37 2024","20","The main experiment item","False","3835.9999656677246","1109529","pygame-experiment-visual-world-paradigm.osexp","C:\Users\yarbus\Desktop\Team Cat\visual-word-paradigm","black","0","0","medium-open","1000","False","mono","False","32","no","black","no","yes","1080","36","Look at the screen and listen carefully. press any key to continue","True","mono","black","32","None","None","w","legacy","1","wolf","43","43","stadium","C:/Users/yarbus/Desktop/Team Cat/visual-word-paradigm/trials/subject-9.csv","2000","legacy","Melodramatic Milgram","4.0.13","False","mono","black","32","None","380","Pause. Look at the fixation dot in order to continue.","30000","-480","480","-480","480","270","270","-270","-270","1000","0","2","legacy","At the stadium, the girl ran a marathon.","500","1024","2","3.3359999656677246","48000","-16","C:\Users\yarbus\AppData\Local\Temp\tmpvzxioa4h.opensesame_pool\36_marathon.ogg","marathon","dishes","mouse","bust","marathon","dishes","mouse","bust","experiment","marathon","9","odd","2382","BL","1503876.0","C:\Users\yarbus\Desktop\Team Cat\visual-word-paradigm\temp","1001729","1104382","1497802","995096","1497802","995161","1104381","1497735","1505876","NA","1503829","995139","1498850","1497773","1497537","NA","1499929","1109530","1497761","995130","experiment-visual-word-paradigm","1505876.0","ran","1389","wolf.mp4","1920"
"59_documents.ogg","white","legacy","True","C:\Users\yarbus\Desktop\Team Cat\visual-word-paradigm\temp","legacy","legacy","motion","C:\Users\yarbus\Desktop\Team Cat\visual-word-paradigm\config.yml","0","0","44","0","44","0","0","44","44","0","44","0","44","44","44","0","44","0","44","0","14.50598402866909","50","Fri Jul 12 14:11:37 2024","20","The main experiment item","False","4243.99995803833","1109529","pygame-experiment-visual-world-paradigm.osexp","C:\Users\yarbus\Desktop\Team Cat\visual-word-paradigm","black","0","0","medium-open","1000","False","mono","False","32","no","black","no","yes","1080","59","Look at the screen and listen carefully. press any key to continue","True","mono","black","32","None","None","w","legacy","1","wolf","44","44","office","C:/Users/yarbus/Desktop/Team Cat/visual-word-paradigm/trials/subject-9.csv","2000","legacy","Melodramatic Milgram","4.0.13","False","mono","black","32","None","380","Pause. Look at the fixation dot in order to continue.","30000","-480","480","-480","480","270","270","-270","-270","1000","0","2","legacy","In the office, the girl printed documents. ","500","1024","2","3.74399995803833","48000","-16","C:\Users\yarbus\AppData\Local\Temp\tmpvzxioa4h.opensesame_pool\59_documents.ogg","brainmodel","documents","weights","fishing","brainmodel","documents","weights","fishing","experiment","documents","9","odd","2487","BR","1512647.0","C:\Users\yarbus\Desktop\Team Cat\visual-word-paradigm\temp","1001729","1104382","1506109","995096","1506109","995161","1104381","1506049","1514647","NA","1512596","995139","1507143","1506082","1505887","NA","1508287","1109530","1506072","995130","experiment-visual-word-paradigm","1514647.0","printed","1575","wolf.mp4","1920"
"18_armchair.ogg","white","legacy","True","C:\Users\yarbus\Desktop\Team Cat\visual-word-paradigm\temp","legacy","legacy","static","C:\Users\yarbus\Desktop\Team Cat\visual-word-paradigm\config.yml","0","0","45","0","45","0","0","45","45","0","45","0","45","45","45","0","45","0","45","0","16.07163937873179","50","Fri Jul 12 14:11:37 2024","20","The main experiment item","False","3788.0001068115234","1109529","pygame-experiment-visual-world-paradigm.osexp","C:\Users\yarbus\Desktop\Team Cat\visual-word-paradigm","black","0","0","medium-open","1000","False","mono","False","32","no","black","no","yes","1080","18","Look at the screen and listen carefully. press any key to continue","True","mono","black","32","None","None","w","legacy","1","wolf","45","45","living room","C:/Users/yarbus/Desktop/Team Cat/visual-word-paradigm/trials/subject-9.csv","2000","legacy","Melodramatic Milgram","4.0.13","False","mono","black","32","None","380","Pause. Look at the fixation dot in order to continue.","30000","-480","480","-480","480","270","270","-270","-270","1000","0","2","legacy","In the living room, the girl sat in an armchair.","500","1024","2","3.2880001068115234","48000","-16","C:\Users\yarbus\AppData\Local\Temp\tmpvzxioa4h.opensesame_pool\18_armchair.ogg","wolf","battleship","frisbee","armchair","wolf","battleship","frisbee","armchair","experiment","armchair","9","odd","2048","TR","1520873.0","C:\Users\yarbus\Desktop\Team Cat\visual-word-paradigm\temp","1001729","1104382","1514902","995096","1514902","995161","1104381","1514843","1522873","NA","1520831","995139","1515949","1514875","1514660","NA","1516991","1109530","1514866","995130","experiment-visual-word-paradigm","1522873.0","sat","1290","wolf.mp4","1920"
"30_cottoncandy.ogg","white","legacy","True","C:\Users\yarbus\Desktop\Team Cat\visual-word-paradigm\temp","legacy","legacy","static","C:\Users\yarbus\Desktop\Team Cat\visual-word-paradigm\config.yml","0","0","46","0","46","0","0","46","46","0","46","0","46","46","46","0","46","0","46","0","21.58936071309197","50","Fri Jul 12 14:11:37 2024","20","The main experiment item","False","4028.0001163482666","1109529","pygame-experiment-visual-world-paradigm.osexp","C:\Users\yarbus\Desktop\Team Cat\visual-word-paradigm","black","0","0","medium-open","1000","False","mono","False","32","no","black","no","yes","1080","30","Look at the screen and listen carefully. press any key to continue","True","mono","black","32","None","None","w","legacy","1","wolf","46","46","carnival","C:/Users/yarbus/Desktop/Team Cat/visual-word-paradigm/trials/subject-9.csv","2000","legacy","Melodramatic Milgram","4.0.13","False","mono","black","32","None","380","Pause. Look at the fixation dot in order to continue.","30000","-480","480","-480","480","270","270","-270","-270","1000","0","2","legacy","At the carnival, the girl ate cotton candy.","500","1024","2","3.5280001163482666","48000","-16","C:\Users\yarbus\AppData\Local\Temp\tmpvzxioa4h.opensesame_pool\30_cottoncandy.ogg","badminton","armchair","boxingglove","cottoncandy","badminton","armchair","boxingglove","cottoncandy","experiment","cottoncandy","9","odd","2400","TR","1529377.0","C:\Users\yarbus\Desktop\Team Cat\visual-word-paradigm\temp","1001729","1104382","1523151","995096","1523151","995161","1104381","1523086","1531377","NA","1529324","995139","1524182","1523121","1522884","NA","1525246","1109530","1523111","995130","experiment-visual-word-paradigm","1531377.0","ate","1970","wolf.mp4","1920"
"06_croissant.ogg","white","legacy","True","C:\Users\yarbus\Desktop\Team Cat\visual-word-paradigm\temp","legacy","legacy","static","C:\Users\yarbus\Desktop\Team Cat\visual-word-paradigm\config.yml","0","0","47","0","47","0","0","47","47","0","47","0","47","47","47","0","47","0","47","0","22.09115278114745","50","Fri Jul 12 14:11:37 2024","20","The main experiment item","False","4075.999975204468","1109529","pygame-experiment-visual-world-paradigm.osexp","C:\Users\yarbus\Desktop\Team Cat\visual-word-paradigm","black","0","0","medium-open","1000","False","mono","False","32","no","black","no","yes","1080","6","Look at the screen and listen carefully. press any key to continue","True","mono","black","32","None","None","w","legacy","1","wolf","47","47","breakfast","C:/Users/yarbus/Desktop/Team Cat/visual-word-paradigm/trials/subject-9.csv","2000","legacy","Melodramatic Milgram","4.0.13","False","mono","black","32","None","380","Pause. Look at the fixation dot in order to continue.","30000","-480","480","-480","480","270","270","-270","-270","1000","0","2","legacy","At breakfast, the girl ate a croissant. ","500","1024","2","3.5759999752044678","48000","-16","C:\Users\yarbus\AppData\Local\Temp\tmpvzxioa4h.opensesame_pool\06_croissant.ogg","dance","makeup","croissant","duck","dance","makeup","croissant","duck","experiment","croissant","9","odd","2576","TL","1537910.0","C:\Users\yarbus\Desktop\Team Cat\visual-word-paradigm\temp","1001729","1104382","1531629","995096","1531629","995161","1104381","1531567","1539910","NA","1537866","995139","1532679","1531599","1531389","NA","1533741","1109530","1531591","995130","experiment-visual-word-paradigm","1539910.0","ate","1876","wolf.mp4","1920"
"33_movie.ogg","white","legacy","True","C:\Users\yarbus\Desktop\Team Cat\visual-word-paradigm\temp","legacy","legacy","motion","C:\Users\yarbus\Desktop\Team Cat\visual-word-paradigm\config.yml","0","0","48","0","48","0","0","48","48","0","48","0","48","48","48","0","48","0","48","0","45.35165796307787","50","Fri Jul 12 14:11:37 2024","20","The main experiment item","False","4220.0000286102295","1109529","pygame-experiment-visual-world-paradigm.osexp","C:\Users\yarbus\Desktop\Team Cat\visual-word-paradigm","black","0","0","medium-open","1000","False","mono","False","32","no","black","no","yes","1080","33","Look at the screen and listen carefully. press any key to continue","True","mono","black","32","None","None","w","legacy","1","wolf","48","48","cinema","C:/Users/yarbus/Desktop/Team Cat/visual-word-paradigm/trials/subject-9.csv","2000","legacy","Melodramatic Milgram","4.0.13","False","mono","black","32","None","380","Pause. Look at the fixation dot in order to continue.","30000","-480","480","-480","480","270","270","-270","-270","1000","0","2","legacy","At the cinema, the girl watched a movie.","500","1024","2","3.7200000286102295","48000","-16","C:\Users\yarbus\AppData\Local\Temp\tmpvzxioa4h.opensesame_pool\33_movie.ogg","movie","button","pants","battleship","movie","button","pants","battleship","experiment","movie","9","odd","2212","BL","1546729.0","C:\Users\yarbus\Desktop\Team Cat\visual-word-paradigm\temp","1001729","1104382","1540188","995096","1540188","995161","1104381","1540100","1548729","NA","1546690","995139","1541235","1540152","1539923","NA","1542373","1109530","1540123","995130","experiment-visual-word-paradigm","1548729.0","watched","1562","wolf.mp4","1920"
"46_badminton.ogg","white","legacy","True","C:\Users\yarbus\Desktop\Team Cat\visual-word-paradigm\temp","legacy","legacy","motion","C:\Users\yarbus\Desktop\Team Cat\visual-word-paradigm\config.yml","0","0","49","0","49","0","0","49","49","0","49","0","49","49","49","0","49","0","49","0","47.70732497719819","50","Fri Jul 12 14:11:37 2024","20","The main experiment item","False","3931.999921798706","1109529","pygame-experiment-visual-world-paradigm.osexp","C:\Users\yarbus\Desktop\Team Cat\visual-word-paradigm","black","0","0","medium-open","1000","False","mono","False","32","no","black","no","yes","1080","46","Look at the screen and listen carefully. press any key to continue","True","mono","black","32","None","None","w","legacy","1","wolf","49","49","stadium","C:/Users/yarbus/Desktop/Team Cat/visual-word-paradigm/trials/subject-9.csv","2000","legacy","Melodramatic Milgram","4.0.13","False","mono","black","32","None","380","Pause. Look at the fixation dot in order to continue.","30000","-480","480","-480","480","270","270","-270","-270","1000","0","2","legacy","At the stadium, the girl played badminton.","500","1024","2","3.431999921798706","48000","-16","C:\Users\yarbus\AppData\Local\Temp\tmpvzxioa4h.opensesame_pool\46_badminton.ogg","badminton","cactus","ceilingfan","dishes","badminton","cactus","ceilingfan","dishes","experiment","badminton","9","odd","2416","BL","1555196.0","C:\Users\yarbus\Desktop\Team Cat\visual-word-paradigm\temp","1001729","1104382","1548988","995096","1548988","995161","1104381","1548927","1557196","NA","1555139","995139","1550031","1548961","1548742","NA","1551095","1109530","1548953","995130","experiment-visual-word-paradigm","1557196.0","played","1705","wolf.mp4","1920"
"17_sofa.ogg","white","legacy","True","C:\Users\yarbus\Desktop\Team Cat\visual-word-paradigm\temp","legacy","legacy","static","C:\Users\yarbus\Desktop\Team Cat\visual-word-paradigm\config.yml","0","0","50","0","50","0","0","50","50","0","50","0","50","50","50","0","50","0","50","0","40.013186244536996","50","Fri Jul 12 14:11:37 2024","20","The main experiment item","False","3956.0000896453857","1109529","pygame-experiment-visual-world-paradigm.osexp","C:\Users\yarbus\Desktop\Team Cat\visual-word-paradigm","black","0","0","medium-open","1000","False","mono","False","32","no","black","no","yes","1080","17","Look at the screen and listen carefully. press any key to continue","True","mono","black","32","None","None","w","legacy","1","wolf","50","50","living room","C:/Users/yarbus/Desktop/Team Cat/visual-word-paradigm/trials/subject-9.csv","2000","legacy","Melodramatic Milgram","4.0.13","False","mono","black","32","None","380","Pause. Look at the fixation dot in order to continue.","30000","-480","480","-480","480","270","270","-270","-270","1000","0","2","legacy","In the living room, the girl sat on a sofa. ","500","1024","2","3.4560000896453857","48000","-16","C:\Users\yarbus\AppData\Local\Temp\tmpvzxioa4h.opensesame_pool\17_sofa.ogg","kite","egg","pencilsharpener","sofa","kite","egg","pencilsharpener","sofa","experiment","sofa","9","odd","2636","TR","1563599.0","C:\Users\yarbus\Desktop\Team Cat\visual-word-paradigm\temp","1001729","1104382","1557449","995096","1557449","995161","1104381","1557393","1565599","NA","1563550","995139","1558482","1557419","1557198","NA","1559553","1109530","1557416","995130","experiment-visual-word-paradigm","1565599.0","sat","1619","wolf.mp4","1920"
"21_kite.ogg","white","legacy","True","C:\Users\yarbus\Desktop\Team Cat\visual-word-paradigm\temp","legacy","legacy","static","C:\Users\yarbus\Desktop\Team Cat\visual-word-paradigm\config.yml","0","0","51","0","51","0","0","51","51","0","51","0","51","51","51","0","51","0","51","0","45.20466717851155","50","Fri Jul 12 14:11:37 2024","20","The main experiment item","False","3884.000062942505","1109529","pygame-experiment-visual-world-paradigm.osexp","C:\Users\yarbus\Desktop\Team Cat\visual-word-paradigm","black","0","0","medium-open","1000","False","mono","False","32","no","black","no","yes","1080","21","Look at the screen and listen carefully. press any key to continue","True","mono","black","32","None","None","w","legacy","1","wolf","51","51","park","C:/Users/yarbus/Desktop/Team Cat/visual-word-paradigm/trials/subject-9.csv","2000","legacy","Melodramatic Milgram","4.0.13","False","mono","black","32","None","380","Pause. Look at the fixation dot in order to continue.","30000","-480","480","-480","480","270","270","-270","-270","1000","0","2","legacy","At the park, the girl flew a kite.","500","1024","2","3.384000062942505","48000","-16","C:\Users\yarbus\AppData\Local\Temp\tmpvzxioa4h.opensesame_pool\21_kite.ogg","cake","pool","blood","kite","cake","pool","blood","kite","experiment","kite","9","odd","2440","TR","1571969.0","C:\Users\yarbus\Desktop\Team Cat\visual-word-paradigm\temp","1001729","1104382","1565866","995096","1565866","995161","1104381","1565798","1574008","NA","1571920","995139","1566909","1565830","1565601","NA","1567993","1109530","1565821","995130","experiment-visual-word-paradigm","1573969.0","flew","1354","wolf.mp4","1920"
"08_letter.ogg","white","legacy","True","C:\Users\yarbus\Desktop\Team Cat\visual-word-paradigm\temp","legacy","legacy","static","C:\Users\yarbus\Desktop\Team Cat\visual-word-paradigm\config.yml","0","0","52","0","52","0","0","52","52","0","52","0","52","52","52","0","52","0","52","0","49.514954599191505","50","Fri Jul 12 14:11:37 2024","20","The main experiment item","False","3740.000009536743","1109529","pygame-experiment-visual-world-paradigm.osexp","C:\Users\yarbus\Desktop\Team Cat\visual-word-paradigm","black","0","0","medium-open","1000","False","mono","False","32","no","black","no","yes","1080","8","Look at the screen and listen carefully. press any key to continue","True","mono","black","32","None","None","w","legacy","1","wolf","52","52","desk","C:/Users/yarbus/Desktop/Team Cat/visual-word-paradigm/trials/subject-9.csv","2000","legacy","Melodramatic Milgram","4.0.13","False","mono","black","32","None","380","Pause. Look at the fixation dot in order to continue.","30000","-480","480","-480","480","270","270","-270","-270","1000","0","2","legacy","At her desk, the girl wrote a letter.","500","1024","2","3.240000009536743","48000","-16","C:\Users\yarbus\AppData\Local\Temp\tmpvzxioa4h.opensesame_pool\08_letter.ogg","meditation","bracelet","letter","cactus","meditation","bracelet","letter","cactus","experiment","letter","9","odd","2530","TL","1580260.0","C:\Users\yarbus\Desktop\Team Cat\visual-word-paradigm\temp","1001729","1104382","1574299","995096","1574299","995161","1104381","1574231","1582760","NA","1580221","995139","1575334","1574266","1574020","NA","1576401","1109530","1574254","995130","experiment-visual-word-paradigm","1582260.0","wrote","1550","wolf.mp4","1920"
"40_shopping_cart.ogg","white","legacy","True","C:\Users\yarbus\Desktop\Team Cat\visual-word-paradigm\temp","legacy","legacy","motion","C:\Users\yarbus\Desktop\Team Cat\visual-word-paradigm\config.yml","0","0","53","0","53","0","0","53","53","0","53","0","53","53","53","0","53","0","53","0","15.852621153613693","50","Fri Jul 12 14:11:37 2024","20","The main experiment item","False","4796.000003814697","1109529","pygame-experiment-visual-world-paradigm.osexp","C:\Users\yarbus\Desktop\Team Cat\visual-word-paradigm","black","0","0","medium-open","1000","False","mono","False","32","no","black","no","yes","1080","40","Look at the screen and listen carefully. press any key to continue","True","mono","black","32","None","None","w","legacy","1","wolf","53","53","grocery store","C:/Users/yarbus/Desktop/Team Cat/visual-word-paradigm/trials/subject-9.csv","2000","legacy","Melodramatic Milgram","4.0.13","False","mono","black","32","None","380","Pause. Look at the fixation dot in order to continue.","30000","-480","480","-480","480","270","270","-270","-270","1000","0","2","legacy","At the grocery store, the girl pushed the shopping cart","500","1024","2","4.296000003814697","48000","-16","C:\Users\yarbus\AppData\Local\Temp\tmpvzxioa4h.opensesame_pool\40_shopping_cart.ogg","shoppingcart","nintendods","bulldozer","paperclip","shoppingcart","nintendods","bulldozer","paperclip","experiment","shoppingcart","9","odd","3355","BL","1590242.0","C:\Users\yarbus\Desktop\Team Cat\visual-word-paradigm\temp","1001729","1104382","1583093","995096","1583093","995161","1104381","1583007","1592242","NA","1590192","995139","1584141","1583058","1582771","NA","1585260","1109530","1583048","995130","experiment-visual-word-paradigm","1592242.0","pushed","2390","wolf.mp4","1920"
"58_fish.ogg","white","legacy","True","C:\Users\yarbus\Desktop\Team Cat\visual-word-paradigm\temp","legacy","legacy","motion","C:\Users\yarbus\Desktop\Team Cat\visual-word-paradigm\config.yml","0","0","54","0","54","0","0","54","54","0","54","0","54","54","54","0","54","0","54","0","40.79137553552222","50","Fri Jul 12 14:11:37 2024","20","The main experiment item","False","3691.999912261963","1109529","pygame-experiment-visual-world-paradigm.osexp","C:\Users\yarbus\Desktop\Team Cat\visual-word-paradigm","black","0","0","medium-open","1000","False","mono","False","32","no","black","no","yes","1080","58","Look at the screen and listen carefully. press any key to continue","True","mono","black","32","None","None","w","legacy","1","wolf","54","54","lake","C:/Users/yarbus/Desktop/Team Cat/visual-word-paradigm/trials/subject-9.csv","2000","legacy","Melodramatic Milgram","4.0.13","False","mono","black","32","None","380","Pause. Look at the fixation dot in order to continue.","30000","-480","480","-480","480","270","270","-270","-270","1000","0","2","legacy","At the lake, the girl caught a big fish.","500","1024","2","3.191999912261963","48000","-16","C:\Users\yarbus\AppData\Local\Temp\tmpvzxioa4h.opensesame_pool\58_fish.ogg","blood","fish","boxtruck","mouse","blood","fish","boxtruck","mouse","experiment","fish","9","odd","2396","BR","1598487.0","C:\Users\yarbus\Desktop\Team Cat\visual-word-paradigm\temp","1001729","1104382","1592491","995096","1592491","995161","1104381","1592425","1600487","NA","1598441","995139","1593539","1592455","1592243","NA","1594681","1109530","1592448","995130","experiment-visual-word-paradigm","1600487.0","caught","1467","wolf.mp4","1920"
"49_blood.ogg","white","legacy","True","C:\Users\yarbus\Desktop\Team Cat\visual-word-paradigm\temp","legacy","legacy","motion","C:\Users\yarbus\Desktop\Team Cat\visual-word-paradigm\config.yml","0","0","55","0","55","0","0","55","55","0","55","0","55","55","55","0","55","0","55","0","45.07124344412969","50","Fri Jul 12 14:11:37 2024","20","The main experiment item","False","4267.999887466431","1109529","pygame-experiment-visual-world-paradigm.osexp","C:\Users\yarbus\Desktop\Team Cat\visual-word-paradigm","black","0","0","medium-open","1000","False","mono","False","32","no","black","no","yes","1080","49","Look at the screen and listen carefully. press any key to continue","True","mono","black","32","None","None","w","legacy","1","wolf","55","55","hospital","C:/Users/yarbus/Desktop/Team Cat/visual-word-paradigm/trials/subject-9.csv","2000","legacy","Melodramatic Milgram","4.0.13","False","mono","black","32","None","380","Pause. Look at the fixation dot in order to continue.","30000","-480","480","-480","480","270","270","-270","-270","1000","0","2","legacy","In the hospital, the girl donated blood.","500","1024","2","3.7679998874664307","48000","-16","C:\Users\yarbus\AppData\Local\Temp\tmpvzxioa4h.opensesame_pool\49_blood.ogg","calendar","blood","archery","boxingglove","calendar","blood","archery","boxingglove","experiment","blood","9","odd","2734","BR","1607346.0","C:\Users\yarbus\Desktop\Team Cat\visual-word-paradigm\temp","1001729","1104382","1600767","995096","1600767","995161","1104381","1600691","1609346","NA","1607304","995139","1601808","1600730","1600488","NA","1602933","1109530","1600714","995130","experiment-visual-word-paradigm","1609346.0","donated","1890","wolf.mp4","1920"
"23_novel.ogg","white","legacy","True","C:\Users\yarbus\Desktop\Team Cat\visual-word-paradigm\temp","legacy","legacy","static","C:\Users\yarbus\Desktop\Team Cat\visual-word-paradigm\config.yml","0","0","56","0","56","0","0","56","56","0","56","0","56","56","56","0","56","0","56","0","31.01340252471499","50","Fri Jul 12 14:11:37 2024","20","The main experiment item","False","3523.9999294281006","1109529","pygame-experiment-visual-world-paradigm.osexp","C:\Users\yarbus\Desktop\Team Cat\visual-word-paradigm","black","0","0","medium-open","1000","False","mono","False","32","no","black","no","yes","1080","23","Look at the screen and listen carefully. press any key to continue","True","mono","black","32","None","None","w","legacy","1","wolf","56","56","library","C:/Users/yarbus/Desktop/Team Cat/visual-word-paradigm/trials/subject-9.csv","2000","legacy","Melodramatic Milgram","4.0.13","False","mono","black","32","None","380","Pause. Look at the fixation dot in order to continue.","30000","-480","480","-480","480","270","270","-270","-270","1000","0","2","legacy","In the library, the girl read a novel.","500","1024","2","3.0239999294281006","48000","-16","C:\Users\yarbus\AppData\Local\Temp\tmpvzxioa4h.opensesame_pool\23_novel.ogg","guitar","bracelet","marshmallow","novel","guitar","bracelet","marshmallow","novel","experiment","novel","9","odd","2220","TR","1615355.0","C:\Users\yarbus\Desktop\Team Cat\visual-word-paradigm\temp","1001729","1104382","1609612","995096","1609612","995161","1104381","1609551","1617356","NA","1615304","995139","1610651","1609575","1609357","NA","1611706","1109530","1609574","995130","experiment-visual-word-paradigm","1617356.0","read","1595","wolf.mp4","1920"
