"audio","background","canvas_backend","central_fixation","cfg_temp_dir","clock_backend","color_backend","condition","config_path","count_calibration_pygaze_init","count_check_group_selection","count_define_logging","count_experiment","count_fixation","count_instruction_screen","count_latin_square_group_select","count_logsleep","count_new_logger","count_outro_screen","count_pause","count_preprocess_videos","count_preview","count_pygaze_start_recording","count_pygaze_stop_recording","count_readme","count_sentence","count_trial_loop","count_trial_sequence","count_utils","d","d_to_continue","datetime","delay_logsleep","description","disable_garbage_collection","duration","end_time","experiment_file","experiment_path","fixdot_color","fixdot_posx","fixdot_posy","fixdot_style","fixtime","font_bold","font_family","font_italic","font_size","font_underline","foreground","form_clicks","fullscreen","height","index","inst","inst_cnt","inst_font","inst_font_col","inst_font_size","inst_posx","inst_posy","key","keyboard_backend","latin_group","latin_group_name","live_row","live_row_trial_loop","location_cue","logfile","minpause","mouse_backend","opensesame_codename","opensesame_version","pause_cntr","pause_font","pause_font_col","pause_font_size","pause_posx","pause_posy","pause_text","pausetimeout","posx_sstimBL","posx_sstimBR","posx_sstimTL","posx_sstimTR","posy_sstimBL","posy_sstimBR","posy_sstimTL","posy_sstimTR","prevtime","repeat_cycle","round_decimals","sampler_backend","sentence","sentenceoffset","sound_buf_size","sound_channels","sound_duration_ms","sound_freq","sound_sample_size","src","sstimBL","sstimBR","sstimTL","sstimTR","sstim_bl","sstim_br","sstim_tl","sstim_tr","start","stimulus_name","subject_nr","subject_parity","target_cue_timing","target_pos","tcur","temp_dir","time_calibration_pygaze_init","time_check_group_selection","time_define_logging","time_experiment","time_fixation","time_instruction_screen","time_latin_square_group_select","time_logsleep","time_new_logger","time_outro_screen","time_pause","time_preprocess_videos","time_preview","time_pygaze_start_recording","time_pygaze_stop_recording","time_readme","time_sentence","time_trial_loop","time_trial_sequence","time_utils","title","tmin","verb_cue","verb_cue_timing","video_file","width"
"41_drinks.ogg","white","legacy","True","C:\Users\yarbus\Desktop\Team Cat\visual-word-paradigm\temp","legacy","legacy","motion","C:\Users\yarbus\Desktop\Team Cat\visual-word-paradigm\config.yml","0","0","0","0","0","0","0","0","0","0","0","0","0","0","0","0","0","0","0","0","43.49826104110373","50","Thu Jul 11 19:21:07 2024","20","The main experiment item","False","4075.999975204468","1343684","pygame-experiment-visual-world-paradigm.osexp","C:\Users\yarbus\Desktop\Team Cat\visual-word-paradigm","black","0","0","medium-open","1000","False","mono","False","32","no","black","no","yes","1080","41","Look at the screen and listen carefully. press any key to continue","True","mono","black","32","None","None","w","legacy","1","wolf","0","0","party","C:/Users/yarbus/Desktop/Team Cat/visual-word-paradigm/trials/subject-3.csv","2000","legacy","Melodramatic Milgram","4.0.13","False","mono","black","32","None","380","Pause. Look at the fixation dot in order to continue.","30000","-480","480","-480","480","270","270","-270","-270","1000","0","2","legacy","At the party, the girl served drinks to the guests.","500","1024","2","3.5759999752044678","48000","-16","C:\Users\yarbus\AppData\Local\Temp\tmprj53r2kq.opensesame_pool\41_drinks.ogg","drinks","nailclipper","cats","shoppingcart","drinks","nailclipper","cats","shoppingcart","experiment","drinks","3","odd","2115","BL","1360496.0","C:\Users\yarbus\Desktop\Team Cat\visual-word-paradigm\temp","1301021","1341544","1354077","1299370","1354077","1299402","1341544","NA","1363225","NA","1360445","1299378","1355112","1343700","NA","NA","1356235","1343685","1343691","1299371","experiment-visual-word-paradigm","1362496.0","served","1333","wolf.mp4","1920"
"32_flowers.ogg","white","legacy","True","C:\Users\yarbus\Desktop\Team Cat\visual-word-paradigm\temp","legacy","legacy","static","C:\Users\yarbus\Desktop\Team Cat\visual-word-paradigm\config.yml","0","0","1","0","1","0","0","1","1","0","1","0","1","1","1","0","1","0","1","0","35.157733032719875","50","Thu Jul 11 19:21:07 2024","20","The main experiment item","False","3691.999912261963","1343684","pygame-experiment-visual-world-paradigm.osexp","C:\Users\yarbus\Desktop\Team Cat\visual-word-paradigm","black","0","0","medium-open","1000","False","mono","False","32","no","black","no","yes","1080","32","Look at the screen and listen carefully. press any key to continue","True","mono","black","32","None","None","w","legacy","1","wolf","1","1","garden","C:/Users/yarbus/Desktop/Team Cat/visual-word-paradigm/trials/subject-3.csv","2000","legacy","Melodramatic Milgram","4.0.13","False","mono","black","32","None","380","Pause. Look at the fixation dot in order to continue.","30000","-480","480","-480","480","270","270","-270","-270","1000","0","2","legacy","In the garden, the girl planted flowers.","500","1024","2","3.191999912261963","48000","-16","C:\Users\yarbus\AppData\Local\Temp\tmprj53r2kq.opensesame_pool\32_flowers.ogg","nailclipper","beer","baggage","flowers","nailclipper","beer","baggage","flowers","experiment","flowers","3","odd","2155","TR","1374426.0","C:\Users\yarbus\Desktop\Team Cat\visual-word-paradigm\temp","1301021","1341544","1368516","1299370","1368516","1299402","1341544","1363446","1376426","NA","1374384","1299378","1369552","1363470","1363243","NA","1370632","1343685","1363468","1299371","experiment-visual-word-paradigm","1376426.0","planted","1771","wolf.mp4","1920"
"15_keyboard.ogg","white","legacy","True","C:\Users\yarbus\Desktop\Team Cat\visual-word-paradigm\temp","legacy","legacy","static","C:\Users\yarbus\Desktop\Team Cat\visual-word-paradigm\config.yml","0","0","2","0","2","0","0","2","2","0","2","0","2","2","2","0","2","0","2","0","37.369682293538474","50","Thu Jul 11 19:21:07 2024","20","The main experiment item","False","4196.000099182129","1343684","pygame-experiment-visual-world-paradigm.osexp","C:\Users\yarbus\Desktop\Team Cat\visual-word-paradigm","black","0","0","medium-open","1000","False","mono","False","32","no","black","no","yes","1080","15","Look at the screen and listen carefully. press any key to continue","True","mono","black","32","None","None","w","legacy","1","wolf","2","2","desk","C:/Users/yarbus/Desktop/Team Cat/visual-word-paradigm/trials/subject-3.csv","2000","legacy","Melodramatic Milgram","4.0.13","False","mono","black","32","None","380","Pause. Look at the fixation dot in order to continue.","30000","-480","480","-480","480","270","270","-270","-270","1000","0","2","legacy","At her desk, the girl typed on the keyboard.","500","1024","2","3.696000099182129","48000","-16","C:\Users\yarbus\AppData\Local\Temp\tmprj53r2kq.opensesame_pool\15_keyboard.ogg","paintcan","sofa","keyboard","bowl","paintcan","sofa","keyboard","bowl","experiment","keyboard","3","odd","2111","TL","1383046.0","C:\Users\yarbus\Desktop\Team Cat\visual-word-paradigm\temp","1301021","1341544","1376621","1299370","1376621","1299402","1341544","1376554","1386397","NA","1383004","1299378","1377669","1376594","1376429","NA","1378748","1343685","1376579","1299371","experiment-visual-word-paradigm","1385046.0","typed","1500","wolf.mp4","1920"
"39_clothes.ogg","white","legacy","True","C:\Users\yarbus\Desktop\Team Cat\visual-word-paradigm\temp","legacy","legacy","motion","C:\Users\yarbus\Desktop\Team Cat\visual-word-paradigm\config.yml","0","0","3","0","3","0","0","3","3","0","3","0","3","3","3","0","3","0","3","0","27.116788084137124","50","Thu Jul 11 19:21:07 2024","20","The main experiment item","False","4243.99995803833","1343684","pygame-experiment-visual-world-paradigm.osexp","C:\Users\yarbus\Desktop\Team Cat\visual-word-paradigm","black","0","0","medium-open","1000","False","mono","False","32","no","black","no","yes","1080","39","Look at the screen and listen carefully. press any key to continue","True","mono","black","32","None","None","w","legacy","1","wolf","3","3","laundromat","C:/Users/yarbus/Desktop/Team Cat/visual-word-paradigm/trials/subject-3.csv","2000","legacy","Melodramatic Milgram","4.0.13","False","mono","black","32","None","380","Pause. Look at the fixation dot in order to continue.","30000","-480","480","-480","480","270","270","-270","-270","1000","0","2","legacy","At the laundromat, the girl washed her clothes.","500","1024","2","3.74399995803833","48000","-16","C:\Users\yarbus\AppData\Local\Temp\tmprj53r2kq.opensesame_pool\39_clothes.ogg","clothes","bookshelf","horse","armchair","clothes","bookshelf","horse","armchair","experiment","clothes","3","odd","2812","BL","1393221.0","C:\Users\yarbus\Desktop\Team Cat\visual-word-paradigm\temp","1301021","1341544","1386691","1299370","1386691","1299402","1341544","1386630","1395221","NA","1393182","1299378","1387734","1386655","1386399","NA","1388835","1343685","1386653","1299371","experiment-visual-word-paradigm","1395221.0","washed","2027","wolf.mp4","1920"
"57_trails.ogg","white","legacy","True","C:\Users\yarbus\Desktop\Team Cat\visual-word-paradigm\temp","legacy","legacy","motion","C:\Users\yarbus\Desktop\Team Cat\visual-word-paradigm\config.yml","0","0","4","0","4","0","0","4","4","0","4","0","4","4","4","0","4","0","4","0","11.050102768752833","50","Thu Jul 11 19:21:07 2024","20","The main experiment item","False","3859.999895095825","1343684","pygame-experiment-visual-world-paradigm.osexp","C:\Users\yarbus\Desktop\Team Cat\visual-word-paradigm","black","0","0","medium-open","1000","False","mono","False","32","no","black","no","yes","1080","57","Look at the screen and listen carefully. press any key to continue","True","mono","black","32","None","None","w","legacy","1","wolf","4","4","forest","C:/Users/yarbus/Desktop/Team Cat/visual-word-paradigm/trials/subject-3.csv","2000","legacy","Melodramatic Milgram","4.0.13","False","mono","black","32","None","380","Pause. Look at the fixation dot in order to continue.","30000","-480","480","-480","480","270","270","-270","-270","1000","0","2","legacy","In the forest, the girl hiked on trails.","500","1024","2","3.359999895095825","48000","-16","C:\Users\yarbus\AppData\Local\Temp\tmprj53r2kq.opensesame_pool\57_trails.ogg","bust","hiking","belt","bathtub","bust","hiking","belt","bathtub","experiment","trails","3","odd","2394","BR","1401622.0","C:\Users\yarbus\Desktop\Team Cat\visual-word-paradigm\temp","1301021","1341544","1395434","1299370","1395434","1299402","1341544","1395353","1403622","NA","1401576","1299378","1396478","1395405","1395233","NA","1397581","1343685","1395384","1299371","experiment-visual-word-paradigm","1403622.0","hiked","1349","wolf.mp4","1920"
"62_mathproblems.ogg","white","legacy","True","C:\Users\yarbus\Desktop\Team Cat\visual-word-paradigm\temp","legacy","legacy","motion","C:\Users\yarbus\Desktop\Team Cat\visual-word-paradigm\config.yml","0","0","5","0","5","0","0","5","5","0","5","0","5","5","5","0","5","0","5","0","28.106022429365506","50","Thu Jul 11 19:21:07 2024","20","The main experiment item","False","4196.000099182129","1343684","pygame-experiment-visual-world-paradigm.osexp","C:\Users\yarbus\Desktop\Team Cat\visual-word-paradigm","black","0","0","medium-open","1000","False","mono","False","32","no","black","no","yes","1080","62","Look at the screen and listen carefully. press any key to continue","True","mono","black","32","None","None","w","legacy","1","wolf","5","5","classroom","C:/Users/yarbus/Desktop/Team Cat/visual-word-paradigm/trials/subject-3.csv","2000","legacy","Melodramatic Milgram","4.0.13","False","mono","black","32","None","380","Pause. Look at the fixation dot in order to continue.","30000","-480","480","-480","480","270","270","-270","-270","1000","0","2","legacy","In the classroom, the girl solved math problems.","500","1024","2","3.696000099182129","48000","-16","C:\Users\yarbus\AppData\Local\Temp\tmprj53r2kq.opensesame_pool\62_mathproblems.ogg","kite","math","bear","cookie","kite","math","bear","cookie","experiment","math","3","odd","2397","BR","1410313.0","C:\Users\yarbus\Desktop\Team Cat\visual-word-paradigm\temp","1301021","1341544","1403813","1299370","1403813","1299402","1341544","1403753","1412313","NA","1410258","1299378","1404856","1403787","1403625","NA","1405955","1343685","1403777","1299371","experiment-visual-word-paradigm","1412313.0","solved","1801","wolf.mp4","1920"
"33_movie.ogg","white","legacy","True","C:\Users\yarbus\Desktop\Team Cat\visual-word-paradigm\temp","legacy","legacy","motion","C:\Users\yarbus\Desktop\Team Cat\visual-word-paradigm\config.yml","0","0","6","0","6","0","0","6","6","0","6","0","6","6","6","0","6","0","6","0","14.892419897384094","50","Thu Jul 11 19:21:07 2024","20","The main experiment item","False","4220.0000286102295","1343684","pygame-experiment-visual-world-paradigm.osexp","C:\Users\yarbus\Desktop\Team Cat\visual-word-paradigm","black","0","0","medium-open","1000","False","mono","False","32","no","black","no","yes","1080","33","Look at the screen and listen carefully. press any key to continue","True","mono","black","32","None","None","w","legacy","1","wolf","6","6","cinema","C:/Users/yarbus/Desktop/Team Cat/visual-word-paradigm/trials/subject-3.csv","2000","legacy","Melodramatic Milgram","4.0.13","False","mono","black","32","None","380","Pause. Look at the fixation dot in order to continue.","30000","-480","480","-480","480","270","270","-270","-270","1000","0","2","legacy","At the cinema, the girl watched a movie.","500","1024","2","3.7200000286102295","48000","-16","C:\Users\yarbus\AppData\Local\Temp\tmprj53r2kq.opensesame_pool\33_movie.ogg","movie","button","pants","battleship","movie","button","pants","battleship","experiment","movie","3","odd","2212","BL","1419010.0","C:\Users\yarbus\Desktop\Team Cat\visual-word-paradigm\temp","1301021","1341544","1412470","1299370","1412470","1299402","1341544","1412418","1421010","NA","1418959","1299378","1413505","1412443","1412325","NA","1414606","1343685","1412441","1299371","experiment-visual-word-paradigm","1421010.0","watched","1562","wolf.mp4","1920"
"44_bathtub.ogg","white","legacy","True","C:\Users\yarbus\Desktop\Team Cat\visual-word-paradigm\temp","legacy","legacy","motion","C:\Users\yarbus\Desktop\Team Cat\visual-word-paradigm\config.yml","0","0","7","0","7","0","0","7","7","0","7","0","7","7","7","0","7","0","7","0","34.665118654924576","50","Thu Jul 11 19:21:07 2024","20","The main experiment item","False","4099.999904632568","1343684","pygame-experiment-visual-world-paradigm.osexp","C:\Users\yarbus\Desktop\Team Cat\visual-word-paradigm","black","0","0","medium-open","1000","False","mono","False","32","no","black","no","yes","1080","44","Look at the screen and listen carefully. press any key to continue","True","mono","black","32","None","None","w","legacy","1","wolf","7","7","spa","C:/Users/yarbus/Desktop/Team Cat/visual-word-paradigm/trials/subject-3.csv","2000","legacy","Melodramatic Milgram","4.0.13","False","mono","black","32","None","380","Pause. Look at the fixation dot in order to continue.","30000","-480","480","-480","480","270","270","-270","-270","1000","0","2","legacy","In the spa, the girl relaxed in the bathtub.","500","1024","2","3.5999999046325684","48000","-16","C:\Users\yarbus\AppData\Local\Temp\tmprj53r2kq.opensesame_pool\44_bathtub.ogg","bathtub","wedding","dog","moon","bathtub","wedding","dog","moon","experiment","bathtub","3","odd","2713","BL","1427642.0","C:\Users\yarbus\Desktop\Team Cat\visual-word-paradigm\temp","1301021","1341544","1421230","1299370","1421230","1299402","1341544","1421161","1429794","NA","1427596","1299378","1422275","1421198","1421022","NA","1423412","1343685","1421184","1299371","experiment-visual-word-paradigm","1429642.0","relaxed","1683","wolf.mp4","1920"
"52_pool.ogg","white","legacy","True","C:\Users\yarbus\Desktop\Team Cat\visual-word-paradigm\temp","legacy","legacy","motion","C:\Users\yarbus\Desktop\Team Cat\visual-word-paradigm\config.yml","0","0","8","0","8","0","0","8","8","0","8","0","8","8","8","0","8","0","8","0","47.8611988951384","50","Thu Jul 11 19:21:07 2024","20","The main experiment item","False","3548.0000972747803","1343684","pygame-experiment-visual-world-paradigm.osexp","C:\Users\yarbus\Desktop\Team Cat\visual-word-paradigm","black","0","0","medium-open","1000","False","mono","False","32","no","black","no","yes","1080","52","Look at the screen and listen carefully. press any key to continue","True","mono","black","32","None","None","w","legacy","1","wolf","8","8","bar","C:/Users/yarbus/Desktop/Team Cat/visual-word-paradigm/trials/subject-3.csv","2000","legacy","Melodramatic Milgram","4.0.13","False","mono","black","32","None","380","Pause. Look at the fixation dot in order to continue.","30000","-480","480","-480","480","270","270","-270","-270","1000","0","2","legacy","In the bar, the girl played pool.","500","1024","2","3.0480000972747803","48000","-16","C:\Users\yarbus\AppData\Local\Temp\tmprj53r2kq.opensesame_pool\52_pool.ogg","paperairplane","pool","calculator","dance","paperairplane","pool","calculator","dance","experiment","pool","3","odd","1993","BR","1435944.0","C:\Users\yarbus\Desktop\Team Cat\visual-word-paradigm\temp","1301021","1341544","1430027","1299370","1430027","1299402","1341544","1429968","1438304","NA","1435893","1299378","1431073","1429993","1429807","NA","1432222","1343685","1429991","1299371","experiment-visual-word-paradigm","1437944.0","played","1298","wolf.mp4","1920"
"53_darts.ogg","white","legacy","True","C:\Users\yarbus\Desktop\Team Cat\visual-word-paradigm\temp","legacy","legacy","motion","C:\Users\yarbus\Desktop\Team Cat\visual-word-paradigm\config.yml","0","0","9","0","9","0","0","9","9","0","9","0","9","9","9","0","9","0","9","0","41.81616211370911","50","Thu Jul 11 19:21:07 2024","20","The main experiment item","False","3907.9999923706055","1343684","pygame-experiment-visual-world-paradigm.osexp","C:\Users\yarbus\Desktop\Team Cat\visual-word-paradigm","black","0","0","medium-open","1000","False","mono","False","32","no","black","no","yes","1080","53","Look at the screen and listen carefully. press any key to continue","True","mono","black","32","None","None","w","legacy","1","wolf","9","9","bar","C:/Users/yarbus/Desktop/Team Cat/visual-word-paradigm/trials/subject-3.csv","2000","legacy","Melodramatic Milgram","4.0.13","False","mono","black","32","None","380","Pause. Look at the fixation dot in order to continue.","30000","-480","480","-480","480","270","270","-270","-270","1000","0","2","legacy","In the bar, the girl played darts. ","500","1024","2","3.4079999923706055","48000","-16","C:\Users\yarbus\AppData\Local\Temp\tmprj53r2kq.opensesame_pool\53_darts.ogg","dog","dart","popcorn","shoppingcart","dog","dart","popcorn","shoppingcart","experiment","dart","3","odd","2809","BR","1444734.0","C:\Users\yarbus\Desktop\Team Cat\visual-word-paradigm\temp","1301021","1341544","1438527","1299370","1438527","1299402","1341544","1438466","1446793","NA","1444686","1299378","1439574","1438503","1438307","NA","1440668","1343685","1438490","1299371","experiment-visual-word-paradigm","1446734.0","played","1930","wolf.mp4","1920"
"51_beer.ogg","white","legacy","True","C:\Users\yarbus\Desktop\Team Cat\visual-word-paradigm\temp","legacy","legacy","motion","C:\Users\yarbus\Desktop\Team Cat\visual-word-paradigm\config.yml","0","0","10","0","10","0","0","10","10","0","10","0","10","10","10","0","10","0","10","0","48.44897066398826","50","Thu Jul 11 19:21:07 2024","20","The main experiment item","False","3308.000087738037","1343684","pygame-experiment-visual-world-paradigm.osexp","C:\Users\yarbus\Desktop\Team Cat\visual-word-paradigm","black","0","0","medium-open","1000","False","mono","False","32","no","black","no","yes","1080","51","Look at the screen and listen carefully. press any key to continue","True","mono","black","32","None","None","w","legacy","1","wolf","10","10","bar","C:/Users/yarbus/Desktop/Team Cat/visual-word-paradigm/trials/subject-3.csv","2000","legacy","Melodramatic Milgram","4.0.13","False","mono","black","32","None","380","Pause. Look at the fixation dot in order to continue.","30000","-480","480","-480","480","270","270","-270","-270","1000","0","2","legacy","In the bar, the girl drank beer. ","500","1024","2","2.808000087738037","48000","-16","C:\Users\yarbus\AppData\Local\Temp\tmprj53r2kq.opensesame_pool\51_beer.ogg","treadmill","beer","bathtub","plants","treadmill","beer","bathtub","plants","experiment","beer","3","odd","2090","BR","1452596.0","C:\Users\yarbus\Desktop\Team Cat\visual-word-paradigm\temp","1301021","1341544","1446980","1299370","1446980","1299402","1341544","1446919","1454617","NA","1452548","1299378","1448025","1446952","1446806","NA","1449161","1343685","1446942","1299371","experiment-visual-word-paradigm","1454596.0","drank","1585","wolf.mp4","1920"
"07_clothes.ogg","white","legacy","True","C:\Users\yarbus\Desktop\Team Cat\visual-word-paradigm\temp","legacy","legacy","static","C:\Users\yarbus\Desktop\Team Cat\visual-word-paradigm\config.yml","0","0","11","0","11","0","0","11","11","0","11","0","11","11","11","0","11","0","11","0","48.53755401500986","50","Thu Jul 11 19:21:07 2024","20","The main experiment item","False","4388.000011444092","1343684","pygame-experiment-visual-world-paradigm.osexp","C:\Users\yarbus\Desktop\Team Cat\visual-word-paradigm","black","0","0","medium-open","1000","False","mono","False","32","no","black","no","yes","1080","7","Look at the screen and listen carefully. press any key to continue","True","mono","black","32","None","None","w","legacy","1","wolf","11","11","shopping mall","C:/Users/yarbus/Desktop/Team Cat/visual-word-paradigm/trials/subject-3.csv","2000","legacy","Melodramatic Milgram","4.0.13","False","mono","black","32","None","380","Pause. Look at the fixation dot in order to continue.","30000","-480","480","-480","480","270","270","-270","-270","1000","0","2","legacy","In the shopping mall, the girl shopped for clothes.","500","1024","2","3.888000011444092","48000","-16","C:\Users\yarbus\AppData\Local\Temp\tmprj53r2kq.opensesame_pool\07_clothes.ogg","CD","flowers","clothes","cellphone","CD","flowers","clothes","cellphone","experiment","clothes","3","odd","2579","TL","1461436.0","C:\Users\yarbus\Desktop\Team Cat\visual-word-paradigm\temp","1301021","1341544","1454829","1299370","1454829","1299402","1341544","1454763","1463436","NA","1461380","1299378","1455861","1454801","1454631","NA","1456937","1343685","1454786","1299371","experiment-visual-word-paradigm","1463436.0","shopped","1703","wolf.mp4","1920"
"50_cactus.ogg","white","legacy","True","C:\Users\yarbus\Desktop\Team Cat\visual-word-paradigm\temp","legacy","legacy","motion","C:\Users\yarbus\Desktop\Team Cat\visual-word-paradigm\config.yml","0","0","12","0","12","0","0","12","12","0","12","0","12","12","12","0","12","0","12","0","19.70018714631915","50","Thu Jul 11 19:21:07 2024","20","The main experiment item","False","5179.999828338623","1343684","pygame-experiment-visual-world-paradigm.osexp","C:\Users\yarbus\Desktop\Team Cat\visual-word-paradigm","black","0","0","medium-open","1000","False","mono","False","32","no","black","no","yes","1080","50","Look at the screen and listen carefully. press any key to continue","True","mono","black","32","None","None","w","legacy","1","wolf","12","12","botanical garden","C:/Users/yarbus/Desktop/Team Cat/visual-word-paradigm/trials/subject-3.csv","2000","legacy","Melodramatic Milgram","4.0.13","False","mono","black","32","None","380","Pause. Look at the fixation dot in order to continue.","30000","-480","480","-480","480","270","270","-270","-270","1000","0","2","legacy","In the botanical garden, the girl got stung by a cactus.","500","1024","2","4.679999828338623","48000","-16","C:\Users\yarbus\AppData\Local\Temp\tmprj53r2kq.opensesame_pool\50_cactus.ogg","card","cactus","bear","pacifier","card","cactus","bear","pacifier","experiment","cactus","3","odd","3287","BR","1471073.0","C:\Users\yarbus\Desktop\Team Cat\visual-word-paradigm\temp","1301021","1341544","1463627","1299370","1463627","1299402","1341544","1463579","1473073","NA","1471027","1299378","1464663","1463604","1463448","NA","1465756","1343685","1463602","1299371","experiment-visual-word-paradigm","1473073.0","stung","2326","wolf.mp4","1920"
"37_vegetables.ogg","white","legacy","True","C:\Users\yarbus\Desktop\Team Cat\visual-word-paradigm\temp","legacy","legacy","motion","C:\Users\yarbus\Desktop\Team Cat\visual-word-paradigm\config.yml","0","0","13","0","13","0","0","13","13","0","13","0","13","13","13","0","13","0","13","0","9.94571879755307","50","Thu Jul 11 19:21:07 2024","20","The main experiment item","False","4003.999948501587","1343684","pygame-experiment-visual-world-paradigm.osexp","C:\Users\yarbus\Desktop\Team Cat\visual-word-paradigm","black","0","0","medium-open","1000","False","mono","False","32","no","black","no","yes","1080","37","Look at the screen and listen carefully. press any key to continue","True","mono","black","32","None","None","w","legacy","1","wolf","13","13","market","C:/Users/yarbus/Desktop/Team Cat/visual-word-paradigm/trials/subject-3.csv","2000","legacy","Melodramatic Milgram","4.0.13","False","mono","black","32","None","380","Pause. Look at the fixation dot in order to continue.","30000","-480","480","-480","480","270","270","-270","-270","1000","0","2","legacy","At the market, the girl bought fresh vegetables.","500","1024","2","3.503999948501587","48000","-16","C:\Users\yarbus\AppData\Local\Temp\tmprj53r2kq.opensesame_pool\37_vegetables.ogg","vegetables","pacifier","duck","bicycle","vegetables","pacifier","duck","bicycle","experiment","vegetables","3","odd","2344","BL","1479590.0","C:\Users\yarbus\Desktop\Team Cat\visual-word-paradigm\temp","1301021","1341544","1473262","1299370","1473263","1299402","1341544","1473199","1481590","NA","1479533","1299378","1474311","1473232","1473074","NA","1475395","1343685","1473222","1299371","experiment-visual-word-paradigm","1481590.0","bought","1606","wolf.mp4","1920"
"61_cellphone.ogg","white","legacy","True","C:\Users\yarbus\Desktop\Team Cat\visual-word-paradigm\temp","legacy","legacy","motion","C:\Users\yarbus\Desktop\Team Cat\visual-word-paradigm\config.yml","0","0","14","0","14","0","0","14","14","0","14","0","14","14","14","0","14","0","14","0","45.49892332440401","50","Thu Jul 11 19:21:07 2024","20","The main experiment item","False","4868.000030517578","1343684","pygame-experiment-visual-world-paradigm.osexp","C:\Users\yarbus\Desktop\Team Cat\visual-word-paradigm","black","0","0","medium-open","1000","False","mono","False","32","no","black","no","yes","1080","61","Look at the screen and listen carefully. press any key to continue","True","mono","black","32","None","None","w","legacy","1","wolf","14","14","cinema","C:/Users/yarbus/Desktop/Team Cat/visual-word-paradigm/trials/subject-3.csv","2000","legacy","Melodramatic Milgram","4.0.13","False","mono","black","32","None","380","Pause. Look at the fixation dot in order to continue.","30000","-480","480","-480","480","270","270","-270","-270","1000","0","2","legacy","In the cinema, the girl turned off her cellphone.","500","1024","2","4.368000030517578","48000","-16","C:\Users\yarbus\AppData\Local\Temp\tmprj53r2kq.opensesame_pool\61_cellphone.ogg","documents","cellphone","badminton","bathtub","documents","cellphone","badminton","bathtub","experiment","cellphone","3","odd","2297","BR","1489011.0","C:\Users\yarbus\Desktop\Team Cat\visual-word-paradigm\temp","1301021","1341544","1481771","1299370","1481771","1299402","1341544","1481702","1491053","NA","1488953","1299378","1482809","1481739","1481591","NA","1483987","1343685","1481736","1299371","experiment-visual-word-paradigm","1491011.0","turned off","1473","wolf.mp4","1920"
"13_dice.ogg","white","legacy","True","C:\Users\yarbus\Desktop\Team Cat\visual-word-paradigm\temp","legacy","legacy","static","C:\Users\yarbus\Desktop\Team Cat\visual-word-paradigm\config.yml","0","0","15","0","15","0","0","15","15","0","15","0","15","15","15","0","15","0","15","0","49.02956399235054","50","Thu Jul 11 19:21:07 2024","20","The main experiment item","False","3644.0000534057617","1343684","pygame-experiment-visual-world-paradigm.osexp","C:\Users\yarbus\Desktop\Team Cat\visual-word-paradigm","black","0","0","medium-open","1000","False","mono","False","32","no","black","no","yes","1080","13","Look at the screen and listen carefully. press any key to continue","True","mono","black","32","None","None","w","legacy","1","wolf","15","15","casino","C:/Users/yarbus/Desktop/Team Cat/visual-word-paradigm/trials/subject-3.csv","2000","legacy","Melodramatic Milgram","4.0.13","False","mono","black","32","None","380","Pause. Look at the fixation dot in order to continue.","30000","-480","480","-480","480","270","270","-270","-270","1000","0","2","legacy","At the casino, the girl threw a dice.","500","1024","2","3.1440000534057617","48000","-16","C:\Users\yarbus\AppData\Local\Temp\tmprj53r2kq.opensesame_pool\13_dice.ogg","moon","calendar","dice","injection","moon","calendar","dice","injection","experiment","dice","3","odd","2221","TL","1497095.0","C:\Users\yarbus\Desktop\Team Cat\visual-word-paradigm\temp","1301021","1341544","1491247","1299370","1491247","1299402","1341544","1491180","1499280","NA","1497053","1299378","1492292","1491222","1491055","NA","1493359","1343685","1491203","1299371","experiment-visual-word-paradigm","1499095.0","threw","1621","wolf.mp4","1920"
"58_fish.ogg","white","legacy","True","C:\Users\yarbus\Desktop\Team Cat\visual-word-paradigm\temp","legacy","legacy","motion","C:\Users\yarbus\Desktop\Team Cat\visual-word-paradigm\config.yml","0","0","16","0","16","0","0","16","16","0","16","0","16","16","16","0","16","0","16","0","47.79830943956063","50","Thu Jul 11 19:21:07 2024","20","The main experiment item","False","3691.999912261963","1343684","pygame-experiment-visual-world-paradigm.osexp","C:\Users\yarbus\Desktop\Team Cat\visual-word-paradigm","black","0","0","medium-open","1000","False","mono","False","32","no","black","no","yes","1080","58","Look at the screen and listen carefully. press any key to continue","True","mono","black","32","None","None","w","legacy","1","wolf","16","16","lake","C:/Users/yarbus/Desktop/Team Cat/visual-word-paradigm/trials/subject-3.csv","2000","legacy","Melodramatic Milgram","4.0.13","False","mono","black","32","None","380","Pause. Look at the fixation dot in order to continue.","30000","-480","480","-480","480","270","270","-270","-270","1000","0","2","legacy","At the lake, the girl caught a big fish.","500","1024","2","3.191999912261963","48000","-16","C:\Users\yarbus\AppData\Local\Temp\tmprj53r2kq.opensesame_pool\58_fish.ogg","blood","fish","boxtruck","mouse","blood","fish","boxtruck","mouse","experiment","fish","3","odd","2396","BR","1505487.0","C:\Users\yarbus\Desktop\Team Cat\visual-word-paradigm\temp","1301021","1341544","1499495","1299370","1499495","1299402","1341544","1499436","1507525","NA","1505436","1299378","1500537","1499463","1499288","NA","1501670","1343685","1499459","1299371","experiment-visual-word-paradigm","1507487.0","caught","1467","wolf.mp4","1920"
"20_seashells.ogg","white","legacy","True","C:\Users\yarbus\Desktop\Team Cat\visual-word-paradigm\temp","legacy","legacy","static","C:\Users\yarbus\Desktop\Team Cat\visual-word-paradigm\config.yml","0","0","17","0","17","0","0","17","17","0","17","0","17","17","17","0","17","0","17","0","34.3449901953691","50","Thu Jul 11 19:21:07 2024","20","The main experiment item","False","3980.0000190734863","1343684","pygame-experiment-visual-world-paradigm.osexp","C:\Users\yarbus\Desktop\Team Cat\visual-word-paradigm","black","0","0","medium-open","1000","False","mono","False","32","no","black","no","yes","1080","20","Look at the screen and listen carefully. press any key to continue","True","mono","black","32","None","None","w","legacy","1","wolf","17","17","beach","C:/Users/yarbus/Desktop/Team Cat/visual-word-paradigm/trials/subject-3.csv","2000","legacy","Melodramatic Milgram","4.0.13","False","mono","black","32","None","380","Pause. Look at the fixation dot in order to continue.","30000","-480","480","-480","480","270","270","-270","-270","1000","0","2","legacy","At the beach, the girl collected seashells.","500","1024","2","3.4800000190734863","48000","-16","C:\Users\yarbus\AppData\Local\Temp\tmprj53r2kq.opensesame_pool\20_seashells.ogg","documents","basketballhoop","apple","seashells","documents","basketballhoop","apple","seashells","experiment","seashells","3","odd","2070","TR","1513945.0","C:\Users\yarbus\Desktop\Team Cat\visual-word-paradigm\temp","1301021","1341544","1507723","1299370","1507723","1299402","1341544","1507652","1515945","NA","1513898","1299378","1508767","1507693","1507527","NA","1509838","1343685","1507675","1299371","experiment-visual-word-paradigm","1515945.0","built","1300","wolf.mp4","1920"
"25_dishes.ogg","white","legacy","True","C:\Users\yarbus\Desktop\Team Cat\visual-word-paradigm\temp","legacy","legacy","static","C:\Users\yarbus\Desktop\Team Cat\visual-word-paradigm\config.yml","0","0","18","0","18","0","0","18","18","0","18","0","18","18","18","0","18","0","18","0","47.91713184237971","50","Thu Jul 11 19:21:07 2024","20","The main experiment item","False","3691.999912261963","1343684","pygame-experiment-visual-world-paradigm.osexp","C:\Users\yarbus\Desktop\Team Cat\visual-word-paradigm","black","0","0","medium-open","1000","False","mono","False","32","no","black","no","yes","1080","25","Look at the screen and listen carefully. press any key to continue","True","mono","black","32","None","None","w","legacy","1","wolf","18","18","kitchen","C:/Users/yarbus/Desktop/Team Cat/visual-word-paradigm/trials/subject-3.csv","2000","legacy","Melodramatic Milgram","4.0.13","False","mono","black","32","None","380","Pause. Look at the fixation dot in order to continue.","30000","-480","480","-480","480","270","270","-270","-270","1000","0","2","legacy","In the kitchen, the girl washed dishes.","500","1024","2","3.191999912261963","48000","-16","C:\Users\yarbus\AppData\Local\Temp\tmprj53r2kq.opensesame_pool\25_dishes.ogg","pacifier","seashells","cigarette","dishes","pacifier","seashells","cigarette","dishes","experiment","dishes","3","odd","2151","TR","1522043.0","C:\Users\yarbus\Desktop\Team Cat\visual-word-paradigm\temp","1301021","1341544","1516146","1299370","1516146","1299402","1341544","1516082","1524083","NA","1522001","1299378","1517193","1516114","1515958","NA","1518246","1343685","1516105","1299371","experiment-visual-word-paradigm","1524043.0","washed","1440","wolf.mp4","1920"
"18_armchair.ogg","white","legacy","True","C:\Users\yarbus\Desktop\Team Cat\visual-word-paradigm\temp","legacy","legacy","static","C:\Users\yarbus\Desktop\Team Cat\visual-word-paradigm\config.yml","0","0","19","0","19","0","0","19","19","0","19","0","19","19","19","0","19","0","19","0","15.207545837511033","50","Thu Jul 11 19:21:07 2024","20","The main experiment item","False","3788.0001068115234","1343684","pygame-experiment-visual-world-paradigm.osexp","C:\Users\yarbus\Desktop\Team Cat\visual-word-paradigm","black","0","0","medium-open","1000","False","mono","False","32","no","black","no","yes","1080","18","Look at the screen and listen carefully. press any key to continue","True","mono","black","32","None","None","w","legacy","1","wolf","19","19","living room","C:/Users/yarbus/Desktop/Team Cat/visual-word-paradigm/trials/subject-3.csv","2000","legacy","Melodramatic Milgram","4.0.13","False","mono","black","32","None","380","Pause. Look at the fixation dot in order to continue.","30000","-480","480","-480","480","270","270","-270","-270","1000","0","2","legacy","In the living room, the girl sat in an armchair.","500","1024","2","3.2880001068115234","48000","-16","C:\Users\yarbus\AppData\Local\Temp\tmprj53r2kq.opensesame_pool\18_armchair.ogg","wolf","battleship","frisbee","armchair","wolf","battleship","frisbee","armchair","experiment","armchair","3","odd","2048","TR","1530235.0","C:\Users\yarbus\Desktop\Team Cat\visual-word-paradigm\temp","1301021","1341544","1524224","1299370","1524224","1299402","1341544","1524167","1532235","NA","1530185","1299378","1525273","1524202","1524094","NA","1526334","1343685","1524190","1299371","experiment-visual-word-paradigm","1532235.0","sat","1290","wolf.mp4","1920"
"56_marshmallows.ogg","white","legacy","True","C:\Users\yarbus\Desktop\Team Cat\visual-word-paradigm\temp","legacy","legacy","motion","C:\Users\yarbus\Desktop\Team Cat\visual-word-paradigm\config.yml","0","0","20","0","20","0","0","20","20","0","20","0","20","20","20","0","20","0","20","0","10.681535956968002","50","Thu Jul 11 19:21:07 2024","20","The main experiment item","False","4507.999897003174","1343684","pygame-experiment-visual-world-paradigm.osexp","C:\Users\yarbus\Desktop\Team Cat\visual-word-paradigm","black","0","0","medium-open","1000","False","mono","False","32","no","black","no","yes","1080","56","Look at the screen and listen carefully. press any key to continue","True","mono","black","32","None","None","w","legacy","1","wolf","20","20","campfire","C:/Users/yarbus/Desktop/Team Cat/visual-word-paradigm/trials/subject-3.csv","2000","legacy","Melodramatic Milgram","4.0.13","False","mono","black","32","None","380","Pause. Look at the fixation dot in order to continue.","30000","-480","480","-480","480","270","270","-270","-270","1000","0","2","legacy","At the campfire, the girl roasted marshmallows.","500","1024","2","4.007999897003174","48000","-16","C:\Users\yarbus\AppData\Local\Temp\tmprj53r2kq.opensesame_pool\56_marshmallows.ogg","card","marshmallow","dice","mouse","card","marshmallow","dice","mouse","experiment","marshmallow","3","odd","2892","BR","1539181.0","C:\Users\yarbus\Desktop\Team Cat\visual-word-paradigm\temp","1301021","1341544","1532434","1299370","1532434","1299402","1341544","1532372","1541181","NA","1539141","1299378","1533480","1532407","1532236","NA","1534551","1343685","1532396","1299371","experiment-visual-word-paradigm","1541181.0","roasted","2167","wolf.mp4","1920"
"22_dog.ogg","white","legacy","True","C:\Users\yarbus\Desktop\Team Cat\visual-word-paradigm\temp","legacy","legacy","static","C:\Users\yarbus\Desktop\Team Cat\visual-word-paradigm\config.yml","0","0","21","0","21","0","0","21","21","0","21","0","21","21","21","0","21","0","21","0","48.553736795431114","50","Thu Jul 11 19:21:07 2024","20","The main experiment item","False","3523.9999294281006","1343684","pygame-experiment-visual-world-paradigm.osexp","C:\Users\yarbus\Desktop\Team Cat\visual-word-paradigm","black","0","0","medium-open","1000","False","mono","False","32","no","black","no","yes","1080","22","Look at the screen and listen carefully. press any key to continue","True","mono","black","32","None","None","w","legacy","1","wolf","21","21","park","C:/Users/yarbus/Desktop/Team Cat/visual-word-paradigm/trials/subject-3.csv","2000","legacy","Melodramatic Milgram","4.0.13","False","mono","black","32","None","380","Pause. Look at the fixation dot in order to continue.","30000","-480","480","-480","480","270","270","-270","-270","1000","0","2","legacy","At the park, the girl walked a dog. ","500","1024","2","3.0239999294281006","48000","-16","C:\Users\yarbus\AppData\Local\Temp\tmprj53r2kq.opensesame_pool\22_dog.ogg","calculator","mitten","button","dog","calculator","mitten","button","dog","experiment","dog","3","odd","2241","TR","1547160.0","C:\Users\yarbus\Desktop\Team Cat\visual-word-paradigm\temp","1301021","1341544","1541411","1299370","1541411","1299402","1341544","1541343","1549236","NA","1547119","1299378","1542449","1541378","1541194","NA","1543517","1343685","1541366","1299371","experiment-visual-word-paradigm","1549160.0","walked","1379","wolf.mp4","1920"
"54_cd.ogg","white","legacy","True","C:\Users\yarbus\Desktop\Team Cat\visual-word-paradigm\temp","legacy","legacy","motion","C:\Users\yarbus\Desktop\Team Cat\visual-word-paradigm\config.yml","0","0","22","0","22","0","0","22","22","0","22","0","22","22","22","0","22","0","22","0","45.077766164706894","50","Thu Jul 11 19:21:07 2024","20","The main experiment item","False","4099.999904632568","1343684","pygame-experiment-visual-world-paradigm.osexp","C:\Users\yarbus\Desktop\Team Cat\visual-word-paradigm","black","0","0","medium-open","1000","False","mono","False","32","no","black","no","yes","1080","54","Look at the screen and listen carefully. press any key to continue","True","mono","black","32","None","None","w","legacy","1","wolf","22","22","car","C:/Users/yarbus/Desktop/Team Cat/visual-word-paradigm/trials/subject-3.csv","2000","legacy","Melodramatic Milgram","4.0.13","False","mono","black","32","None","380","Pause. Look at the fixation dot in order to continue.","30000","-480","480","-480","480","270","270","-270","-270","1000","0","2","legacy","In the car, the girl listened to a CD.","500","1024","2","3.5999999046325684","48000","-16","C:\Users\yarbus\AppData\Local\Temp\tmprj53r2kq.opensesame_pool\54_cd.ogg","moon","cd","ceilingfan","brick","moon","cd","ceilingfan","brick","experiment","cd","3","odd","2643","BR","1555829.0","C:\Users\yarbus\Desktop\Team Cat\visual-word-paradigm\temp","1301021","1341544","1549435","1299370","1549435","1299402","1341544","1549378","1557857","NA","1555779","1299378","1550476","1549404","1549239","NA","1551573","1343685","1549401","1299371","experiment-visual-word-paradigm","1557829.0","listened","1529","wolf.mp4","1920"
"29_ferriswheel.ogg","white","legacy","True","C:\Users\yarbus\Desktop\Team Cat\visual-word-paradigm\temp","legacy","legacy","static","C:\Users\yarbus\Desktop\Team Cat\visual-word-paradigm\config.yml","0","0","23","0","23","0","0","23","23","0","23","0","23","23","23","0","23","0","23","0","31.57562389692405","50","Thu Jul 11 19:21:07 2024","20","The main experiment item","False","4843.999862670898","1343684","pygame-experiment-visual-world-paradigm.osexp","C:\Users\yarbus\Desktop\Team Cat\visual-word-paradigm","black","0","0","medium-open","1000","False","mono","False","32","no","black","no","yes","1080","29","Look at the screen and listen carefully. press any key to continue","True","mono","black","32","None","None","w","legacy","1","wolf","23","23","carnival","C:/Users/yarbus/Desktop/Team Cat/visual-word-paradigm/trials/subject-3.csv","2000","legacy","Melodramatic Milgram","4.0.13","False","mono","black","32","None","380","Pause. Look at the fixation dot in order to continue.","30000","-480","480","-480","480","270","270","-270","-270","1000","0","2","legacy","At the carnival, the girl rode on a Ferris wheel.","500","1024","2","4.343999862670898","48000","-16","C:\Users\yarbus\AppData\Local\Temp\tmprj53r2kq.opensesame_pool\29_ferriswheel.ogg","vegetables","button","paperclip","ferriswheel","vegetables","button","paperclip","ferriswheel","experiment","ferriswheel","3","odd","3120","TR","1565113.0","C:\Users\yarbus\Desktop\Team Cat\visual-word-paradigm\temp","1301021","1341544","1558057","1299370","1558057","1299402","1341544","1557986","1567113","NA","1565059","1299378","1559090","1558028","1557861","NA","1560145","1343685","1558009","1299371","experiment-visual-word-paradigm","1567113.0","rode","1662","wolf.mp4","1920"
"48_cigarette.ogg","white","legacy","True","C:\Users\yarbus\Desktop\Team Cat\visual-word-paradigm\temp","legacy","legacy","motion","C:\Users\yarbus\Desktop\Team Cat\visual-word-paradigm\config.yml","0","0","24","0","24","0","0","24","24","0","24","0","24","24","24","0","24","0","24","0","26.87662789562712","50","Thu Jul 11 19:21:07 2024","20","The main experiment item","False","4003.999948501587","1343684","pygame-experiment-visual-world-paradigm.osexp","C:\Users\yarbus\Desktop\Team Cat\visual-word-paradigm","black","0","0","medium-open","1000","False","mono","False","32","no","black","no","yes","1080","48","Look at the screen and listen carefully. press any key to continue","True","mono","black","32","None","None","w","legacy","1","wolf","24","24","terrace","C:/Users/yarbus/Desktop/Team Cat/visual-word-paradigm/trials/subject-3.csv","2000","legacy","Melodramatic Milgram","4.0.13","False","mono","black","32","None","380","Pause. Look at the fixation dot in order to continue.","30000","-480","480","-480","480","270","270","-270","-270","1000","0","2","legacy","On the terrace, the girl smoked a cigarette.","500","1024","2","3.503999948501587","48000","-16","C:\Users\yarbus\AppData\Local\Temp\tmprj53r2kq.opensesame_pool\48_cigarette.ogg","cigarette","bicycle","fishing","car","cigarette","bicycle","fishing","car","experiment","cigarette","3","odd","2273","BL","1573538.0","C:\Users\yarbus\Desktop\Team Cat\visual-word-paradigm\temp","1301021","1341544","1567271","1299370","1567271","1299402","1341544","1567198","1575577","NA","1573491","1299378","1568318","1567245","1567115","NA","1569405","1343685","1567230","1299371","experiment-visual-word-paradigm","1575538.0","smoked","1546","wolf.mp4","1920"
"23_novel.ogg","white","legacy","True","C:\Users\yarbus\Desktop\Team Cat\visual-word-paradigm\temp","legacy","legacy","static","C:\Users\yarbus\Desktop\Team Cat\visual-word-paradigm\config.yml","0","0","25","0","25","0","0","25","25","0","25","0","25","25","25","0","25","0","25","0","46.95449184902334","50","Thu Jul 11 19:21:07 2024","20","The main experiment item","False","3523.9999294281006","1343684","pygame-experiment-visual-world-paradigm.osexp","C:\Users\yarbus\Desktop\Team Cat\visual-word-paradigm","black","0","0","medium-open","1000","False","mono","False","32","no","black","no","yes","1080","23","Look at the screen and listen carefully. press any key to continue","True","mono","black","32","None","None","w","legacy","1","wolf","25","25","library","C:/Users/yarbus/Desktop/Team Cat/visual-word-paradigm/trials/subject-3.csv","2000","legacy","Melodramatic Milgram","4.0.13","False","mono","black","32","None","380","Pause. Look at the fixation dot in order to continue.","30000","-480","480","-480","480","270","270","-270","-270","1000","0","2","legacy","In the library, the girl read a novel.","500","1024","2","3.0239999294281006","48000","-16","C:\Users\yarbus\AppData\Local\Temp\tmprj53r2kq.opensesame_pool\23_novel.ogg","guitar","bracelet","marshmallow","novel","guitar","bracelet","marshmallow","novel","experiment","novel","3","odd","2220","TR","1581512.0","C:\Users\yarbus\Desktop\Team Cat\visual-word-paradigm\temp","1301021","1341544","1575786","1299370","1575786","1299402","1341544","1575719","1583512","NA","1581463","1299378","1576826","1575757","1575580","NA","1577889","1343685","1575742","1299371","experiment-visual-word-paradigm","1583512.0","read","1595","wolf.mp4","1920"
"28_rollercoaster.ogg","white","legacy","True","C:\Users\yarbus\Desktop\Team Cat\visual-word-paradigm\temp","legacy","legacy","static","C:\Users\yarbus\Desktop\Team Cat\visual-word-paradigm\config.yml","0","0","26","0","26","0","0","26","26","0","26","0","26","26","26","0","26","0","26","0","45.21967477105516","50","Thu Jul 11 19:21:07 2024","20","The main experiment item","False","4292.00005531311","1343684","pygame-experiment-visual-world-paradigm.osexp","C:\Users\yarbus\Desktop\Team Cat\visual-word-paradigm","black","0","0","medium-open","1000","False","mono","False","32","no","black","no","yes","1080","28","Look at the screen and listen carefully. press any key to continue","True","mono","black","32","None","None","w","legacy","1","wolf","26","26","carnival","C:/Users/yarbus/Desktop/Team Cat/visual-word-paradigm/trials/subject-3.csv","2000","legacy","Melodramatic Milgram","4.0.13","False","mono","black","32","None","380","Pause. Look at the fixation dot in order to continue.","30000","-480","480","-480","480","270","270","-270","-270","1000","0","2","legacy","At the carnival, the girl rode a roller coaster.","500","1024","2","3.7920000553131104","48000","-16","C:\Users\yarbus\AppData\Local\Temp\tmprj53r2kq.opensesame_pool\28_rollercoaster.ogg","picnic","bust","videogame","rollercoaster","picnic","bust","videogame","rollercoaster","experiment","rollercoaster","3","odd","2229","TR","1590240.0","C:\Users\yarbus\Desktop\Team Cat\visual-word-paradigm\temp","1301021","1341544","1583732","1299370","1583732","1299402","1341544","1583667","1592274","NA","1590195","1299378","1584764","1583701","1583524","NA","1585847","1343685","1583690","1299371","experiment-visual-word-paradigm","1592240.0","rode","1651","wolf.mp4","1920"
"26_weights.ogg","white","legacy","True","C:\Users\yarbus\Desktop\Team Cat\visual-word-paradigm\temp","legacy","legacy","static","C:\Users\yarbus\Desktop\Team Cat\visual-word-paradigm\config.yml","0","0","27","0","27","0","0","27","27","0","27","0","27","27","27","0","27","0","27","0","47.45824502444226","50","Thu Jul 11 19:21:07 2024","20","The main experiment item","False","3907.9999923706055","1343684","pygame-experiment-visual-world-paradigm.osexp","C:\Users\yarbus\Desktop\Team Cat\visual-word-paradigm","black","0","0","medium-open","1000","False","mono","False","32","no","black","no","yes","1080","26","Look at the screen and listen carefully. press any key to continue","True","mono","black","32","None","None","w","legacy","1","wolf","27","27","gym","C:/Users/yarbus/Desktop/Team Cat/visual-word-paradigm/trials/subject-3.csv","2000","legacy","Melodramatic Milgram","4.0.13","False","mono","black","32","None","380","Pause. Look at the fixation dot in order to continue.","30000","-480","480","-480","480","270","270","-270","-270","1000","0","2","legacy","At the gym, the girl lifted weights.","500","1024","2","3.4079999923706055","48000","-16","C:\Users\yarbus\AppData\Local\Temp\tmprj53r2kq.opensesame_pool\26_weights.ogg","croissant","horse","paintcan","weights","croissant","horse","paintcan","weights","experiment","weights","3","odd","2831","TR","1598603.0","C:\Users\yarbus\Desktop\Team Cat\visual-word-paradigm\temp","1301021","1341544","1592493","1299370","1592493","1299402","1341544","1592403","1600603","NA","1598567","1299378","1593536","1592458","1592276","NA","1594600","1343685","1592444","1299371","experiment-visual-word-paradigm","1600603.0","lifted","1825","wolf.mp4","1920"
"31_landscape.ogg","white","legacy","True","C:\Users\yarbus\Desktop\Team Cat\visual-word-paradigm\temp","legacy","legacy","static","C:\Users\yarbus\Desktop\Team Cat\visual-word-paradigm\config.yml","0","0","28","0","28","0","0","28","28","0","28","0","28","28","28","0","28","0","28","0","40.78405920945089","50","Thu Jul 11 19:21:07 2024","20","The main experiment item","False","4220.0000286102295","1343684","pygame-experiment-visual-world-paradigm.osexp","C:\Users\yarbus\Desktop\Team Cat\visual-word-paradigm","black","0","0","medium-open","1000","False","mono","False","32","no","black","no","yes","1080","31","Look at the screen and listen carefully. press any key to continue","True","mono","black","32","None","None","w","legacy","1","wolf","28","28","art class","C:/Users/yarbus/Desktop/Team Cat/visual-word-paradigm/trials/subject-3.csv","2000","legacy","Melodramatic Milgram","4.0.13","False","mono","black","32","None","380","Pause. Look at the fixation dot in order to continue.","30000","-480","480","-480","480","270","270","-270","-270","1000","0","2","legacy","During art class, the girl painted a landscape.","500","1024","2","3.7200000286102295","48000","-16","C:\Users\yarbus\AppData\Local\Temp\tmprj53r2kq.opensesame_pool\31_landscape.ogg","cats","boxtruck","belt","landscapepainting","cats","boxtruck","belt","landscapepainting","experiment","landscapepainting","3","odd","2742","TR","1607258.0","C:\Users\yarbus\Desktop\Team Cat\visual-word-paradigm\temp","1301021","1341544","1600808","1299370","1600808","1299402","1341544","1600745","1609258","NA","1607220","1299378","1601849","1600779","1600604","NA","1602933","1343685","1600768","1299371","experiment-visual-word-paradigm","1609258.0","painted","2015","wolf.mp4","1920"
"05_cookie.ogg","white","legacy","True","C:\Users\yarbus\Desktop\Team Cat\visual-word-paradigm\temp","legacy","legacy","static","C:\Users\yarbus\Desktop\Team Cat\visual-word-paradigm\config.yml","0","0","29","0","29","0","0","29","29","0","29","0","29","29","29","0","29","0","29","0","38.728322826582655","50","Thu Jul 11 19:21:07 2024","20","The main experiment item","False","3907.9999923706055","1343684","pygame-experiment-visual-world-paradigm.osexp","C:\Users\yarbus\Desktop\Team Cat\visual-word-paradigm","black","0","0","medium-open","1000","False","mono","False","32","no","black","no","yes","1080","5","Look at the screen and listen carefully. press any key to continue","True","mono","black","32","None","None","w","legacy","1","wolf","29","29","breakfast","C:/Users/yarbus/Desktop/Team Cat/visual-word-paradigm/trials/subject-3.csv","2000","legacy","Melodramatic Milgram","4.0.13","False","mono","black","32","None","380","Pause. Look at the fixation dot in order to continue.","30000","-480","480","-480","480","270","270","-270","-270","1000","0","2","legacy","At breakfast, the girl ate a cookie.","500","1024","2","3.4079999923706055","48000","-16","C:\Users\yarbus\AppData\Local\Temp\tmprj53r2kq.opensesame_pool\05_cookie.ogg","pants","nailclipper","cookie","movie","pants","nailclipper","cookie","movie","experiment","cookie","3","odd","2350","TL","1615510.0","C:\Users\yarbus\Desktop\Team Cat\visual-word-paradigm\temp","1301021","1341544","1609403","1299370","1609403","1299402","1341544","1609346","1617543","NA","1615458","1299378","1610434","1609378","1609259","NA","1611497","1343685","1609369","1299371","experiment-visual-word-paradigm","1617510.0","ate","1740","wolf.mp4","1920"
"14_card.ogg","white","legacy","True","C:\Users\yarbus\Desktop\Team Cat\visual-word-paradigm\temp","legacy","legacy","static","C:\Users\yarbus\Desktop\Team Cat\visual-word-paradigm\config.yml","0","0","30","0","30","0","0","30","30","0","30","0","30","30","30","0","30","0","30","0","49.214051822624825","50","Thu Jul 11 19:21:07 2024","20","The main experiment item","False","4075.999975204468","1343684","pygame-experiment-visual-world-paradigm.osexp","C:\Users\yarbus\Desktop\Team Cat\visual-word-paradigm","black","0","0","medium-open","1000","False","mono","False","32","no","black","no","yes","1080","14","Look at the screen and listen carefully. press any key to continue","True","mono","black","32","None","None","w","legacy","1","wolf","30","30","casino","C:/Users/yarbus/Desktop/Team Cat/visual-word-paradigm/trials/subject-3.csv","2000","legacy","Melodramatic Milgram","4.0.13","False","mono","black","32","None","380","Pause. Look at the fixation dot in order to continue.","30000","-480","480","-480","480","270","270","-270","-270","1000","0","2","legacy","At the casino, the girl picked a card. ","500","1024","2","3.5759999752044678","48000","-16","C:\Users\yarbus\AppData\Local\Temp\tmprj53r2kq.opensesame_pool\14_card.ogg","vegetables","sandcastle","card","parkfountain","vegetables","sandcastle","card","parkfountain","experiment","card","3","odd","2672","TL","1623971.0","C:\Users\yarbus\Desktop\Team Cat\visual-word-paradigm\temp","1301021","1341544","1617692","1299370","1617692","1299402","1341544","1617622","1625971","NA","1623924","1299378","1618736","1617657","1617546","NA","1619794","1343685","1617654","1299371","experiment-visual-word-paradigm","1625971.0","picked","2075","wolf.mp4","1920"
"24_cake.ogg","white","legacy","True","C:\Users\yarbus\Desktop\Team Cat\visual-word-paradigm\temp","legacy","legacy","static","C:\Users\yarbus\Desktop\Team Cat\visual-word-paradigm\config.yml","0","0","31","0","31","0","0","31","31","0","31","0","31","31","31","0","31","0","31","0","35.689188379676004","50","Thu Jul 11 19:21:07 2024","20","The main experiment item","False","3548.0000972747803","1343684","pygame-experiment-visual-world-paradigm.osexp","C:\Users\yarbus\Desktop\Team Cat\visual-word-paradigm","black","0","0","medium-open","1000","False","mono","False","32","no","black","no","yes","1080","24","Look at the screen and listen carefully. press any key to continue","True","mono","black","32","None","None","w","legacy","1","wolf","31","31","kitchen","C:/Users/yarbus/Desktop/Team Cat/visual-word-paradigm/trials/subject-3.csv","2000","legacy","Melodramatic Milgram","4.0.13","False","mono","black","32","None","380","Pause. Look at the fixation dot in order to continue.","30000","-480","480","-480","480","270","270","-270","-270","1000","0","2","legacy","In the kitchen, the girl baked a cake.","500","1024","2","3.0480000972747803","48000","-16","C:\Users\yarbus\AppData\Local\Temp\tmprj53r2kq.opensesame_pool\24_cake.ogg","button","cello","seashells","cake","button","cello","seashells","cake","experiment","cake","3","odd","2253","TR","1631925.0","C:\Users\yarbus\Desktop\Team Cat\visual-word-paradigm\temp","1301021","1341544","1626172","1299370","1626172","1299402","1341544","1626102","1634040","NA","1631870","1299378","1627200","1626141","1625973","NA","1628256","1343685","1626125","1299371","experiment-visual-word-paradigm","1633925.0","baked","1409","wolf.mp4","1920"
"34_popcorn.ogg","white","legacy","True","C:\Users\yarbus\Desktop\Team Cat\visual-word-paradigm\temp","legacy","legacy","motion","C:\Users\yarbus\Desktop\Team Cat\visual-word-paradigm\config.yml","0","0","32","0","32","0","0","32","32","0","32","0","32","32","32","0","32","0","32","0","45.441913609354074","50","Thu Jul 11 19:21:07 2024","20","The main experiment item","False","4003.999948501587","1343684","pygame-experiment-visual-world-paradigm.osexp","C:\Users\yarbus\Desktop\Team Cat\visual-word-paradigm","black","0","0","medium-open","1000","False","mono","False","32","no","black","no","yes","1080","34","Look at the screen and listen carefully. press any key to continue","True","mono","black","32","None","None","w","legacy","1","wolf","32","32","cinema","C:/Users/yarbus/Desktop/Team Cat/visual-word-paradigm/trials/subject-3.csv","2000","legacy","Melodramatic Milgram","4.0.13","False","mono","black","32","None","380","Pause. Look at the fixation dot in order to continue.","30000","-480","480","-480","480","270","270","-270","-270","1000","0","2","legacy","At the cinema, the girl ate popcorn.","500","1024","2","3.503999948501587","48000","-16","C:\Users\yarbus\AppData\Local\Temp\tmprj53r2kq.opensesame_pool\34_popcorn.ogg","popcorn","dice","fishing","keyboard","popcorn","dice","fishing","keyboard","experiment","popcorn","3","odd","2182","BL","1640536.0","C:\Users\yarbus\Desktop\Team Cat\visual-word-paradigm\temp","1301021","1341544","1634270","1299370","1634270","1299402","1341544","1634207","1642538","NA","1640479","1299378","1635300","1634244","1634053","NA","1636366","1343685","1634230","1299371","experiment-visual-word-paradigm","1642536.0","ate","1685","wolf.mp4","1920"
"38_plants.ogg","white","legacy","True","C:\Users\yarbus\Desktop\Team Cat\visual-word-paradigm\temp","legacy","legacy","motion","C:\Users\yarbus\Desktop\Team Cat\visual-word-paradigm\config.yml","0","0","33","0","33","0","0","33","33","0","33","0","33","33","33","0","33","0","33","0","34.78482082748156","50","Thu Jul 11 19:21:07 2024","20","The main experiment item","False","4099.999904632568","1343684","pygame-experiment-visual-world-paradigm.osexp","C:\Users\yarbus\Desktop\Team Cat\visual-word-paradigm","black","0","0","medium-open","1000","False","mono","False","32","no","black","no","yes","1080","38","Look at the screen and listen carefully. press any key to continue","True","mono","black","32","None","None","w","legacy","1","wolf","33","33","backyard","C:/Users/yarbus/Desktop/Team Cat/visual-word-paradigm/trials/subject-3.csv","2000","legacy","Melodramatic Milgram","4.0.13","False","mono","black","32","None","380","Pause. Look at the fixation dot in order to continue.","30000","-480","480","-480","480","270","270","-270","-270","1000","0","2","legacy","In the backyard, the girl watered the plants.","500","1024","2","3.5999999046325684","48000","-16","C:\Users\yarbus\AppData\Local\Temp\tmprj53r2kq.opensesame_pool\38_plants.ogg","plants","paintcan","brick","calendar","plants","paintcan","brick","calendar","experiment","plants","3","odd","2387","BL","1649101.0","C:\Users\yarbus\Desktop\Team Cat\visual-word-paradigm\temp","1301021","1341544","1642724","1299370","1642724","1299402","1341544","1642655","1651101","NA","1649048","1299378","1643759","1642692","1642540","NA","1644837","1343685","1642681","1299371","experiment-visual-word-paradigm","1651101.0","watered","1510","wolf.mp4","1920"
"43_car.ogg","white","legacy","True","C:\Users\yarbus\Desktop\Team Cat\visual-word-paradigm\temp","legacy","legacy","motion","C:\Users\yarbus\Desktop\Team Cat\visual-word-paradigm\config.yml","0","0","34","0","34","0","0","34","34","0","34","0","34","34","34","0","34","0","34","0","31.441172497220876","50","Thu Jul 11 19:21:07 2024","20","The main experiment item","False","3956.0000896453857","1343684","pygame-experiment-visual-world-paradigm.osexp","C:\Users\yarbus\Desktop\Team Cat\visual-word-paradigm","black","0","0","medium-open","1000","False","mono","False","32","no","black","no","yes","1080","43","Look at the screen and listen carefully. press any key to continue","True","mono","black","32","None","None","w","legacy","1","wolf","34","34","garage","C:/Users/yarbus/Desktop/Team Cat/visual-word-paradigm/trials/subject-3.csv","2000","legacy","Melodramatic Milgram","4.0.13","False","mono","black","32","None","380","Pause. Look at the fixation dot in order to continue.","30000","-480","480","-480","480","270","270","-270","-270","1000","0","2","legacy","In the garage, the girl washed her car.","500","1024","2","3.4560000896453857","48000","-16","C:\Users\yarbus\AppData\Local\Temp\tmprj53r2kq.opensesame_pool\43_car.ogg","car","cd","brainmodel","bear","car","cd","brainmodel","bear","experiment","car","3","odd","2227","BL","1657419.0","C:\Users\yarbus\Desktop\Team Cat\visual-word-paradigm\temp","1301021","1341544","1651217","1299370","1651217","1299402","1341544","1651157","1659420","NA","1657387","1299378","1652262","1651190","1651105","NA","1653363","1343685","1651180","1299371","experiment-visual-word-paradigm","1659420.0","washed","1398","wolf.mp4","1920"
"60_tree.ogg","white","legacy","True","C:\Users\yarbus\Desktop\Team Cat\visual-word-paradigm\temp","legacy","legacy","motion","C:\Users\yarbus\Desktop\Team Cat\visual-word-paradigm\config.yml","0","0","35","0","35","0","0","35","35","0","35","0","35","35","35","0","35","0","35","0","48.43521099365631","50","Thu Jul 11 19:21:07 2024","20","The main experiment item","False","4267.999887466431","1343684","pygame-experiment-visual-world-paradigm.osexp","C:\Users\yarbus\Desktop\Team Cat\visual-word-paradigm","black","0","0","medium-open","1000","False","mono","False","32","no","black","no","yes","1080","60","Look at the screen and listen carefully. press any key to continue","True","mono","black","32","None","None","w","legacy","1","wolf","35","35","forest","C:/Users/yarbus/Desktop/Team Cat/visual-word-paradigm/trials/subject-3.csv","2000","legacy","Melodramatic Milgram","4.0.13","False","mono","black","32","None","380","Pause. Look at the fixation dot in order to continue.","30000","-480","480","-480","480","270","270","-270","-270","1000","0","2","legacy","In the forest, the girl cut down a tree.","500","1024","2","3.7679998874664307","48000","-16","C:\Users\yarbus\AppData\Local\Temp\tmprj53r2kq.opensesame_pool\60_tree.ogg","bookshelf","tree","calculator","cactus","bookshelf","tree","calculator","cactus","experiment","tree","3","odd","2469","BR","1666198.0","C:\Users\yarbus\Desktop\Team Cat\visual-word-paradigm\temp","1301021","1341544","1659642","1299370","1659642","1299402","1341544","1659581","1668202","NA","1666138","1299378","1660673","1659615","1659432","NA","1661755","1343685","1659605","1299371","experiment-visual-word-paradigm","1668198.0","cut","1377","wolf.mp4","1920"
"45_basketball.ogg","white","legacy","True","C:\Users\yarbus\Desktop\Team Cat\visual-word-paradigm\temp","legacy","legacy","motion","C:\Users\yarbus\Desktop\Team Cat\visual-word-paradigm\config.yml","0","0","36","0","36","0","0","36","36","0","36","0","36","36","36","0","36","0","36","0","30.64439379723482","50","Thu Jul 11 19:21:07 2024","20","The main experiment item","False","4196.000099182129","1343684","pygame-experiment-visual-world-paradigm.osexp","C:\Users\yarbus\Desktop\Team Cat\visual-word-paradigm","black","0","0","medium-open","1000","False","mono","False","32","no","black","no","yes","1080","45","Look at the screen and listen carefully. press any key to continue","True","mono","black","32","None","None","w","legacy","1","wolf","36","36","sports hall","C:/Users/yarbus/Desktop/Team Cat/visual-word-paradigm/trials/subject-3.csv","2000","legacy","Melodramatic Milgram","4.0.13","False","mono","black","32","None","380","Pause. Look at the fixation dot in order to continue.","30000","-480","480","-480","480","270","270","-270","-270","1000","0","2","legacy","At the sports hall, the girl played basketball.","500","1024","2","3.696000099182129","48000","-16","C:\Users\yarbus\AppData\Local\Temp\tmprj53r2kq.opensesame_pool\45_basketball.ogg","basketball","mitten","clothes","boxtruck","basketball","mitten","clothes","boxtruck","experiment","basketball","3","odd","2613","BL","1674821.0","C:\Users\yarbus\Desktop\Team Cat\visual-word-paradigm\temp","1301021","1341544","1668359","1299370","1668359","1299402","1341544","1668300","1679664","NA","1674765","1299378","1669400","1668327","1668203","NA","1670502","1343685","1668323","1299371","experiment-visual-word-paradigm","1676821.0","played","1819","wolf.mp4","1920"
"12_egg.ogg","white","legacy","True","C:\Users\yarbus\Desktop\Team Cat\visual-word-paradigm\temp","legacy","legacy","static","C:\Users\yarbus\Desktop\Team Cat\visual-word-paradigm\config.yml","0","0","37","0","37","0","0","37","37","0","37","0","37","37","37","0","37","0","37","0","47.42473045490077","50","Thu Jul 11 19:21:07 2024","20","The main experiment item","False","3763.9999389648438","1343684","pygame-experiment-visual-world-paradigm.osexp","C:\Users\yarbus\Desktop\Team Cat\visual-word-paradigm","black","0","0","medium-open","1000","False","mono","False","32","no","black","no","yes","1080","12","Look at the screen and listen carefully. press any key to continue","True","mono","black","32","None","None","w","legacy","1","wolf","37","37","farm","C:/Users/yarbus/Desktop/Team Cat/visual-word-paradigm/trials/subject-3.csv","2000","legacy","Melodramatic Milgram","4.0.13","False","mono","black","32","None","380","Pause. Look at the fixation dot in order to continue.","30000","-480","480","-480","480","270","270","-270","-270","1000","0","2","legacy","At the farm, the girl picked the egg. ","500","1024","2","3.2639999389648438","48000","-16","C:\Users\yarbus\AppData\Local\Temp\tmprj53r2kq.opensesame_pool\12_egg.ogg","battery","videogame","egg","oven","battery","videogame","egg","oven","experiment","egg","3","odd","2263","TL","1686155.0","C:\Users\yarbus\Desktop\Team Cat\visual-word-paradigm\temp","1301021","1341544","1680177","1299370","1680177","1299402","1341544","1680078","1688221","NA","1686098","1299378","1681227","1680118","1679669","NA","1682284","1343685","1680102","1299371","experiment-visual-word-paradigm","1688155.0","picked","1380","wolf.mp4","1920"
"30_cottoncandy.ogg","white","legacy","True","C:\Users\yarbus\Desktop\Team Cat\visual-word-paradigm\temp","legacy","legacy","static","C:\Users\yarbus\Desktop\Team Cat\visual-word-paradigm\config.yml","0","0","38","0","38","0","0","38","38","0","38","0","38","38","38","0","38","0","38","0","23.36935078944212","50","Thu Jul 11 19:21:07 2024","20","The main experiment item","False","4028.0001163482666","1343684","pygame-experiment-visual-world-paradigm.osexp","C:\Users\yarbus\Desktop\Team Cat\visual-word-paradigm","black","0","0","medium-open","1000","False","mono","False","32","no","black","no","yes","1080","30","Look at the screen and listen carefully. press any key to continue","True","mono","black","32","None","None","w","legacy","1","wolf","38","38","carnival","C:/Users/yarbus/Desktop/Team Cat/visual-word-paradigm/trials/subject-3.csv","2000","legacy","Melodramatic Milgram","4.0.13","False","mono","black","32","None","380","Pause. Look at the fixation dot in order to continue.","30000","-480","480","-480","480","270","270","-270","-270","1000","0","2","legacy","At the carnival, the girl ate cotton candy.","500","1024","2","3.5280001163482666","48000","-16","C:\Users\yarbus\AppData\Local\Temp\tmprj53r2kq.opensesame_pool\30_cottoncandy.ogg","badminton","armchair","boxingglove","cottoncandy","badminton","armchair","boxingglove","cottoncandy","experiment","cottoncandy","3","odd","2400","TR","1694693.0","C:\Users\yarbus\Desktop\Team Cat\visual-word-paradigm\temp","1301021","1341544","1688443","1299370","1688443","1299402","1341544","1688382","1696733","NA","1694643","1299378","1689485","1688408","1688224","NA","1690560","1343685","1688405","1299371","experiment-visual-word-paradigm","1696693.0","ate","1970","wolf.mp4","1920"
"55_frisbee.ogg","white","legacy","True","C:\Users\yarbus\Desktop\Team Cat\visual-word-paradigm\temp","legacy","legacy","motion","C:\Users\yarbus\Desktop\Team Cat\visual-word-paradigm\config.yml","0","0","39","0","39","0","0","39","39","0","39","0","39","39","39","0","39","0","39","0","43.74500786146919","50","Thu Jul 11 19:21:07 2024","20","The main experiment item","False","3716.0000801086426","1343684","pygame-experiment-visual-world-paradigm.osexp","C:\Users\yarbus\Desktop\Team Cat\visual-word-paradigm","black","0","0","medium-open","1000","False","mono","False","32","no","black","no","yes","1080","55","Look at the screen and listen carefully. press any key to continue","True","mono","black","32","None","None","w","legacy","1","wolf","39","39","grass","C:/Users/yarbus/Desktop/Team Cat/visual-word-paradigm/trials/subject-3.csv","2000","legacy","Melodramatic Milgram","4.0.13","False","mono","black","32","None","380","Pause. Look at the fixation dot in order to continue.","30000","-480","480","-480","480","270","270","-270","-270","1000","0","2","legacy","On the grass, the girl played frisbee.","500","1024","2","3.2160000801086426","48000","-16","C:\Users\yarbus\AppData\Local\Temp\tmprj53r2kq.opensesame_pool\55_frisbee.ogg","car","frisbee","math","rollercoaster","car","frisbee","math","rollercoaster","experiment","frisbee","3","odd","2036","BR","1703045.0","C:\Users\yarbus\Desktop\Team Cat\visual-word-paradigm\temp","1301021","1341544","1696964","1299370","1696964","1299402","1341544","1696885","1705115","NA","1702991","1299378","1698018","1696925","1696746","NA","1699150","1343685","1696908","1299371","experiment-visual-word-paradigm","1705045.0","played","1742","wolf.mp4","1920"
"19_sandcastle.ogg","white","legacy","True","C:\Users\yarbus\Desktop\Team Cat\visual-word-paradigm\temp","legacy","legacy","static","C:\Users\yarbus\Desktop\Team Cat\visual-word-paradigm\config.yml","0","0","40","0","40","0","0","40","40","0","40","0","40","40","40","0","40","0","40","0","43.53326056982181","50","Thu Jul 11 19:21:07 2024","20","The main experiment item","False","3476.0000705718994","1343684","pygame-experiment-visual-world-paradigm.osexp","C:\Users\yarbus\Desktop\Team Cat\visual-word-paradigm","black","0","0","medium-open","1000","False","mono","False","32","no","black","no","yes","1080","19","Look at the screen and listen carefully. press any key to continue","True","mono","black","32","None","None","w","legacy","1","wolf","40","40","beach","C:/Users/yarbus/Desktop/Team Cat/visual-word-paradigm/trials/subject-3.csv","2000","legacy","Melodramatic Milgram","4.0.13","False","mono","black","32","None","380","Pause. Look at the fixation dot in order to continue.","30000","-480","480","-480","480","270","270","-270","-270","1000","0","2","legacy","At the beach, the girl built a sandcastle.","500","1024","2","2.9760000705718994","48000","-16","C:\Users\yarbus\AppData\Local\Temp\tmprj53r2kq.opensesame_pool\19_sandcastle.ogg","meditation","dart","math","sandcastle","meditation","dart","math","sandcastle","experiment","sandcastle","3","odd","1787","TR","1711016.0","C:\Users\yarbus\Desktop\Team Cat\visual-word-paradigm\temp","1301021","1341544","1705356","1299370","1705356","1299402","1341544","1705292","1713039","NA","1710962","1299378","1706387","1705329","1705128","NA","1707438","1343685","1705316","1299371","experiment-visual-word-paradigm","1713016.0","built","1169","wolf.mp4","1920"
"40_shopping_cart.ogg","white","legacy","True","C:\Users\yarbus\Desktop\Team Cat\visual-word-paradigm\temp","legacy","legacy","motion","C:\Users\yarbus\Desktop\Team Cat\visual-word-paradigm\config.yml","0","0","41","0","41","0","0","41","41","0","41","0","41","41","41","0","41","0","41","0","29.334213809816024","50","Thu Jul 11 19:21:07 2024","20","The main experiment item","False","4796.000003814697","1343684","pygame-experiment-visual-world-paradigm.osexp","C:\Users\yarbus\Desktop\Team Cat\visual-word-paradigm","black","0","0","medium-open","1000","False","mono","False","32","no","black","no","yes","1080","40","Look at the screen and listen carefully. press any key to continue","True","mono","black","32","None","None","w","legacy","1","wolf","41","41","grocery store","C:/Users/yarbus/Desktop/Team Cat/visual-word-paradigm/trials/subject-3.csv","2000","legacy","Melodramatic Milgram","4.0.13","False","mono","black","32","None","380","Pause. Look at the fixation dot in order to continue.","30000","-480","480","-480","480","270","270","-270","-270","1000","0","2","legacy","At the grocery store, the girl pushed the shopping cart","500","1024","2","4.296000003814697","48000","-16","C:\Users\yarbus\AppData\Local\Temp\tmprj53r2kq.opensesame_pool\40_shopping_cart.ogg","shoppingcart","nintendods","bulldozer","paperclip","shoppingcart","nintendods","bulldozer","paperclip","experiment","shoppingcart","3","odd","3355","BL","1720325.0","C:\Users\yarbus\Desktop\Team Cat\visual-word-paradigm\temp","1301021","1341544","1713311","1299370","1713311","1299402","1341544","1713228","1722440","NA","1720283","1299378","1714351","1713269","1713041","NA","1715426","1343685","1713258","1299371","experiment-visual-word-paradigm","1722325.0","pushed","2390","wolf.mp4","1920"
"01_apple.ogg","white","legacy","True","C:\Users\yarbus\Desktop\Team Cat\visual-word-paradigm\temp","legacy","legacy","static","C:\Users\yarbus\Desktop\Team Cat\visual-word-paradigm\config.yml","0","0","42","0","42","0","0","42","42","0","42","0","42","42","42","0","42","0","42","0","42.15323613484496","50","Thu Jul 11 19:21:07 2024","20","The main experiment item","False","3835.9999656677246","1343684","pygame-experiment-visual-world-paradigm.osexp","C:\Users\yarbus\Desktop\Team Cat\visual-word-paradigm","black","0","0","medium-open","1000","False","mono","False","32","no","black","no","yes","1080","1","Look at the screen and listen carefully. press any key to continue","True","mono","black","32","None","None","w","legacy","1","wolf","42","42","breakfast","C:/Users/yarbus/Desktop/Team Cat/visual-word-paradigm/trials/subject-3.csv","2000","legacy","Melodramatic Milgram","4.0.13","False","mono","black","32","None","380","Pause. Look at the fixation dot in order to continue.","30000","-480","480","-480","480","270","270","-270","-270","1000","0","2","legacy"," At breakfast, I usually eat an apple.","500","1024","2","3.3359999656677246","48000","-16","C:\Users\yarbus\AppData\Local\Temp\tmprj53r2kq.opensesame_pool\01_apple.ogg","pool","wolf","apple","archery","pool","wolf","apple","archery","experiment","apple","3","odd","2696","TL","1728705.0","C:\Users\yarbus\Desktop\Team Cat\visual-word-paradigm\temp","1301021","1341544","1722634","1299370","1722634","1299402","1341544","1722552","1730705","NA","1728644","1299378","1723682","1722601","1722443","NA","1724750","1343685","1722576","1299371","experiment-visual-word-paradigm","1730705.0","eat","1657","wolf.mp4","1920"
"27_treadmill.ogg","white","legacy","True","C:\Users\yarbus\Desktop\Team Cat\visual-word-paradigm\temp","legacy","legacy","static","C:\Users\yarbus\Desktop\Team Cat\visual-word-paradigm\config.yml","0","0","43","0","43","0","0","43","43","0","43","0","43","43","43","0","43","0","43","0","30.27670011081121","50","Thu Jul 11 19:21:07 2024","20","The main experiment item","False","4339.9999141693115","1343684","pygame-experiment-visual-world-paradigm.osexp","C:\Users\yarbus\Desktop\Team Cat\visual-word-paradigm","black","0","0","medium-open","1000","False","mono","False","32","no","black","no","yes","1080","27","Look at the screen and listen carefully. press any key to continue","True","mono","black","32","None","None","w","legacy","1","wolf","43","43","gym","C:/Users/yarbus/Desktop/Team Cat/visual-word-paradigm/trials/subject-3.csv","2000","legacy","Melodramatic Milgram","4.0.13","False","mono","black","32","None","380","Pause. Look at the fixation dot in order to continue.","30000","-480","480","-480","480","270","270","-270","-270","1000","0","2","legacy","At the gym, the girl ran on the treadmill.","500","1024","2","3.8399999141693115","48000","-16","C:\Users\yarbus\AppData\Local\Temp\tmprj53r2kq.opensesame_pool\27_treadmill.ogg","oven","duck","belt","treadmill","oven","duck","belt","treadmill","experiment","treadmill","3","odd","2689","TR","1737476.0","C:\Users\yarbus\Desktop\Team Cat\visual-word-paradigm\temp","1301021","1341544","1730953","1299370","1730953","1299402","1341544","1730872","1739476","NA","1737433","1299378","1731983","1730913","1730707","NA","1733027","1343685","1730901","1299371","experiment-visual-word-paradigm","1739476.0","ran","1849","wolf.mp4","1920"
"49_blood.ogg","white","legacy","True","C:\Users\yarbus\Desktop\Team Cat\visual-word-paradigm\temp","legacy","legacy","motion","C:\Users\yarbus\Desktop\Team Cat\visual-word-paradigm\config.yml","0","0","44","0","44","0","0","44","44","0","44","0","44","44","44","0","44","0","44","0","14.252738263225156","50","Thu Jul 11 19:21:07 2024","20","The main experiment item","False","4267.999887466431","1343684","pygame-experiment-visual-world-paradigm.osexp","C:\Users\yarbus\Desktop\Team Cat\visual-word-paradigm","black","0","0","medium-open","1000","False","mono","False","32","no","black","no","yes","1080","49","Look at the screen and listen carefully. press any key to continue","True","mono","black","32","None","None","w","legacy","1","wolf","44","44","hospital","C:/Users/yarbus/Desktop/Team Cat/visual-word-paradigm/trials/subject-3.csv","2000","legacy","Melodramatic Milgram","4.0.13","False","mono","black","32","None","380","Pause. Look at the fixation dot in order to continue.","30000","-480","480","-480","480","270","270","-270","-270","1000","0","2","legacy","In the hospital, the girl donated blood.","500","1024","2","3.7679998874664307","48000","-16","C:\Users\yarbus\AppData\Local\Temp\tmprj53r2kq.opensesame_pool\49_blood.ogg","calendar","blood","archery","boxingglove","calendar","blood","archery","boxingglove","experiment","blood","3","odd","2734","BR","1746180.0","C:\Users\yarbus\Desktop\Team Cat\visual-word-paradigm\temp","1301021","1341544","1739653","1299370","1739653","1299402","1341544","1739589","1748180","NA","1746129","1299378","1740693","1739620","1739477","NA","1741785","1343685","1739612","1299371","experiment-visual-word-paradigm","1748180.0","donated","1890","wolf.mp4","1920"
"64_cats.ogg","white","legacy","True","C:\Users\yarbus\Desktop\Team Cat\visual-word-paradigm\temp","legacy","legacy","motion","C:\Users\yarbus\Desktop\Team Cat\visual-word-paradigm\config.yml","0","0","45","0","45","0","0","45","45","0","45","0","45","45","45","0","45","0","45","0","27.9883390375349","50","Thu Jul 11 19:21:07 2024","20","The main experiment item","False","4676.000118255615","1343684","pygame-experiment-visual-world-paradigm.osexp","C:\Users\yarbus\Desktop\Team Cat\visual-word-paradigm","black","0","0","medium-open","1000","False","mono","False","32","no","black","no","yes","1080","64","Look at the screen and listen carefully. press any key to continue","True","mono","black","32","None","None","w","legacy","1","wolf","45","45","pet store","C:/Users/yarbus/Desktop/Team Cat/visual-word-paradigm/trials/subject-3.csv","2000","legacy","Melodramatic Milgram","4.0.13","False","mono","black","32","None","380","Pause. Look at the fixation dot in order to continue.","30000","-480","480","-480","480","270","270","-270","-270","1000","0","2","legacy","At the pet store, the girl cuddled with adorable cats.","500","1024","2","4.176000118255615","48000","-16","C:\Users\yarbus\AppData\Local\Temp\tmprj53r2kq.opensesame_pool\64_cats.ogg","battery","cats","paperairplane","ceilingfan","battery","cats","paperairplane","ceilingfan","experiment","cats","3","odd","3384","BR","1755305.0","C:\Users\yarbus\Desktop\Team Cat\visual-word-paradigm\temp","1301021","1341544","1748338","1299370","1748338","1299402","1341544","1748289","1757515","NA","1755254","1299378","1749390","1748315","1748192","NA","1750448","1343685","1748312","1299371","experiment-visual-word-paradigm","1757305.0","cuddled","1510","wolf.mp4","1920"
"16_mouse.ogg","white","legacy","True","C:\Users\yarbus\Desktop\Team Cat\visual-word-paradigm\temp","legacy","legacy","static","C:\Users\yarbus\Desktop\Team Cat\visual-word-paradigm\config.yml","0","0","46","0","46","0","0","46","46","0","46","0","46","46","46","0","46","0","46","0","41.8947870456456","50","Thu Jul 11 19:21:07 2024","20","The main experiment item","False","3740.000009536743","1343684","pygame-experiment-visual-world-paradigm.osexp","C:\Users\yarbus\Desktop\Team Cat\visual-word-paradigm","black","0","0","medium-open","1000","False","mono","False","32","no","black","no","yes","1080","16","Look at the screen and listen carefully. press any key to continue","True","mono","black","32","None","None","w","legacy","1","wolf","46","46","desk","C:/Users/yarbus/Desktop/Team Cat/visual-word-paradigm/trials/subject-3.csv","2000","legacy","Melodramatic Milgram","4.0.13","False","mono","black","32","None","380","Pause. Look at the fixation dot in order to continue.","30000","-480","480","-480","480","270","270","-270","-270","1000","0","2","legacy","At her desk, the girl clicked the mouse. ","500","1024","2","3.240000009536743","48000","-16","C:\Users\yarbus\AppData\Local\Temp\tmprj53r2kq.opensesame_pool\16_mouse.ogg","moon","button","mouse","ceilingfan","moon","button","mouse","ceilingfan","experiment","mouse","3","odd","2425","TL","1763685.0","C:\Users\yarbus\Desktop\Team Cat\visual-word-paradigm\temp","1301021","1341544","1757752","1299370","1757752","1299402","1341544","1757674","1765976","NA","1763645","1299378","1758780","1757725","1757517","NA","1759834","1343685","1757697","1299371","experiment-visual-word-paradigm","1765685.0","clicked","1427","wolf.mp4","1920"
"42_bicycle.ogg","white","legacy","True","C:\Users\yarbus\Desktop\Team Cat\visual-word-paradigm\temp","legacy","legacy","motion","C:\Users\yarbus\Desktop\Team Cat\visual-word-paradigm\config.yml","0","0","47","0","47","0","0","47","47","0","47","0","47","47","47","0","47","0","47","0","22.109475836391894","50","Thu Jul 11 19:21:07 2024","20","The main experiment item","False","4292.00005531311","1343684","pygame-experiment-visual-world-paradigm.osexp","C:\Users\yarbus\Desktop\Team Cat\visual-word-paradigm","black","0","0","medium-open","1000","False","mono","False","32","no","black","no","yes","1080","42","Look at the screen and listen carefully. press any key to continue","True","mono","black","32","None","None","w","legacy","1","wolf","47","47","garage","C:/Users/yarbus/Desktop/Team Cat/visual-word-paradigm/trials/subject-3.csv","2000","legacy","Melodramatic Milgram","4.0.13","False","mono","black","32","None","380","Pause. Look at the fixation dot in order to continue.","30000","-480","480","-480","480","270","270","-270","-270","1000","0","2","legacy","In the garage, the girl fixed her bicycle.","500","1024","2","3.7920000553131104","48000","-16","C:\Users\yarbus\AppData\Local\Temp\tmprj53r2kq.opensesame_pool\42_bicycle.ogg","bicycle","clothes","patioumbrella","card","bicycle","clothes","patioumbrella","card","experiment","bicycle","3","odd","2516","BL","1772775.0","C:\Users\yarbus\Desktop\Team Cat\visual-word-paradigm\temp","1301021","1341544","1766219","1299370","1766219","1299402","1341544","1766158","1774775","NA","1772727","1299378","1767265","1766184","1765982","NA","1768355","1343685","1766181","1299371","experiment-visual-word-paradigm","1774775.0","fixed","1627","wolf.mp4","1920"
"21_kite.ogg","white","legacy","True","C:\Users\yarbus\Desktop\Team Cat\visual-word-paradigm\temp","legacy","legacy","static","C:\Users\yarbus\Desktop\Team Cat\visual-word-paradigm\config.yml","0","0","48","0","48","0","0","48","48","0","48","0","48","48","48","0","48","0","48","0","23.160375540996775","50","Thu Jul 11 19:21:07 2024","20","The main experiment item","False","3884.000062942505","1343684","pygame-experiment-visual-world-paradigm.osexp","C:\Users\yarbus\Desktop\Team Cat\visual-word-paradigm","black","0","0","medium-open","1000","False","mono","False","32","no","black","no","yes","1080","21","Look at the screen and listen carefully. press any key to continue","True","mono","black","32","None","None","w","legacy","1","wolf","48","48","park","C:/Users/yarbus/Desktop/Team Cat/visual-word-paradigm/trials/subject-3.csv","2000","legacy","Melodramatic Milgram","4.0.13","False","mono","black","32","None","380","Pause. Look at the fixation dot in order to continue.","30000","-480","480","-480","480","270","270","-270","-270","1000","0","2","legacy","At the park, the girl flew a kite.","500","1024","2","3.384000062942505","48000","-16","C:\Users\yarbus\AppData\Local\Temp\tmprj53r2kq.opensesame_pool\21_kite.ogg","cake","pool","blood","kite","cake","pool","blood","kite","experiment","kite","3","odd","2440","TR","1781119.0","C:\Users\yarbus\Desktop\Team Cat\visual-word-paradigm\temp","1301021","1341544","1775002","1299370","1775002","1299402","1341544","1774929","1783119","NA","1781067","1299378","1776048","1774971","1774778","NA","1777120","1343685","1774958","1299371","experiment-visual-word-paradigm","1783119.0","flew","1354","wolf.mp4","1920"
"02_horse.ogg","white","legacy","True","C:\Users\yarbus\Desktop\Team Cat\visual-word-paradigm\temp","legacy","legacy","static","C:\Users\yarbus\Desktop\Team Cat\visual-word-paradigm\config.yml","0","0","49","0","49","0","0","49","49","0","49","0","49","49","49","0","49","0","49","0","28.726284084092768","50","Thu Jul 11 19:21:07 2024","20","The main experiment item","False","3931.999921798706","1343684","pygame-experiment-visual-world-paradigm.osexp","C:\Users\yarbus\Desktop\Team Cat\visual-word-paradigm","black","0","0","medium-open","1000","False","mono","False","32","no","black","no","yes","1080","2","Look at the screen and listen carefully. press any key to continue","True","mono","black","32","None","None","w","legacy","1","wolf","49","49","countryside","C:/Users/yarbus/Desktop/Team Cat/visual-word-paradigm/trials/subject-3.csv","2000","legacy","Melodramatic Milgram","4.0.13","False","mono","black","32","None","380","Pause. Look at the fixation dot in order to continue.","30000","-480","480","-480","480","270","270","-270","-270","1000","0","2","legacy","In the countryside, the girl rode a horse.","500","1024","2","3.431999921798706","48000","-16","C:\Users\yarbus\AppData\Local\Temp\tmprj53r2kq.opensesame_pool\02_horse.ogg","paperclip","oven","horse","novel","paperclip","oven","horse","novel","experiment","horse","3","odd","2600","TL","1789449.0","C:\Users\yarbus\Desktop\Team Cat\visual-word-paradigm\temp","1301021","1341544","1783340","1299370","1783340","1299402","1341544","1783275","1791449","NA","1789404","1299378","1784372","1783308","1783122","NA","1785415","1343685","1783299","1299371","experiment-visual-word-paradigm","1791449.0","rode","1655","wolf.mp4","1920"
"04_banana.ogg","white","legacy","True","C:\Users\yarbus\Desktop\Team Cat\visual-word-paradigm\temp","legacy","legacy","static","C:\Users\yarbus\Desktop\Team Cat\visual-word-paradigm\config.yml","0","0","50","0","50","0","0","50","50","0","50","0","50","50","50","0","50","0","50","0","12.106364190788366","50","Thu Jul 11 19:21:07 2024","20","The main experiment item","False","4003.999948501587","1343684","pygame-experiment-visual-world-paradigm.osexp","C:\Users\yarbus\Desktop\Team Cat\visual-word-paradigm","black","0","0","medium-open","1000","False","mono","False","32","no","black","no","yes","1080","4","Look at the screen and listen carefully. press any key to continue","True","mono","black","32","None","None","w","legacy","1","wolf","50","50","breakfast","C:/Users/yarbus/Desktop/Team Cat/visual-word-paradigm/trials/subject-3.csv","2000","legacy","Melodramatic Milgram","4.0.13","False","mono","black","32","None","380","Pause. Look at the fixation dot in order to continue.","30000","-480","480","-480","480","270","270","-270","-270","1000","0","2","legacy","At breakfast, the girl ate a banana.","500","1024","2","3.503999948501587","48000","-16","C:\Users\yarbus\AppData\Local\Temp\tmprj53r2kq.opensesame_pool\04_banana.ogg","pants","videogame","banana","clothes","pants","videogame","banana","clothes","experiment","banana","3","odd","2500","TL","1797786.0","C:\Users\yarbus\Desktop\Team Cat\visual-word-paradigm\temp","1301021","1341544","1791588","1299370","1791589","1299402","1341544","1791524","1799786","NA","1797738","1299378","1792635","1791559","1791451","NA","1793682","1343685","1791551","1299371","experiment-visual-word-paradigm","1799786.0","ate","1770","wolf.mp4","1920"
"09_cello.ogg","white","legacy","True","C:\Users\yarbus\Desktop\Team Cat\visual-word-paradigm\temp","legacy","legacy","static","C:\Users\yarbus\Desktop\Team Cat\visual-word-paradigm\config.yml","0","0","51","0","51","0","0","51","51","0","51","0","51","51","51","0","51","0","51","0","16.973051299044712","50","Thu Jul 11 19:21:07 2024","20","The main experiment item","False","4052.000045776367","1343684","pygame-experiment-visual-world-paradigm.osexp","C:\Users\yarbus\Desktop\Team Cat\visual-word-paradigm","black","0","0","medium-open","1000","False","mono","False","32","no","black","no","yes","1080","9","Look at the screen and listen carefully. press any key to continue","True","mono","black","32","None","None","w","legacy","1","wolf","51","51","musical class","C:/Users/yarbus/Desktop/Team Cat/visual-word-paradigm/trials/subject-3.csv","2000","legacy","Melodramatic Milgram","4.0.13","False","mono","black","32","None","380","Pause. Look at the fixation dot in order to continue.","30000","-480","480","-480","480","270","270","-270","-270","1000","0","2","legacy","During musical class, the girl played the cello. ","500","1024","2","3.552000045776367","48000","-16","C:\Users\yarbus\AppData\Local\Temp\tmprj53r2kq.opensesame_pool\09_cello.ogg","soccer","brick","cello","pencilsharpener","soccer","brick","cello","pencilsharpener","experiment","cello","3","odd","2260","TL","1806326.0","C:\Users\yarbus\Desktop\Team Cat\visual-word-paradigm\temp","1301021","1341544","1800050","1299370","1800050","1299402","1341544","1799963","1808326","NA","1806281","1299378","1801099","1800011","1799799","NA","1802170","1343685","1799986","1299371","experiment-visual-word-paradigm","1808326.0","played","1856","wolf.mp4","1920"
"36_marathon.ogg","white","legacy","True","C:\Users\yarbus\Desktop\Team Cat\visual-word-paradigm\temp","legacy","legacy","motion","C:\Users\yarbus\Desktop\Team Cat\visual-word-paradigm\config.yml","0","0","52","0","52","0","0","52","52","0","52","0","52","52","52","0","52","0","52","0","14.026402492442577","50","Thu Jul 11 19:21:07 2024","20","The main experiment item","False","3835.9999656677246","1343684","pygame-experiment-visual-world-paradigm.osexp","C:\Users\yarbus\Desktop\Team Cat\visual-word-paradigm","black","0","0","medium-open","1000","False","mono","False","32","no","black","no","yes","1080","36","Look at the screen and listen carefully. press any key to continue","True","mono","black","32","None","None","w","legacy","1","wolf","52","52","stadium","C:/Users/yarbus/Desktop/Team Cat/visual-word-paradigm/trials/subject-3.csv","2000","legacy","Melodramatic Milgram","4.0.13","False","mono","black","32","None","380","Pause. Look at the fixation dot in order to continue.","30000","-480","480","-480","480","270","270","-270","-270","1000","0","2","legacy","At the stadium, the girl ran a marathon.","500","1024","2","3.3359999656677246","48000","-16","C:\Users\yarbus\AppData\Local\Temp\tmprj53r2kq.opensesame_pool\36_marathon.ogg","marathon","dishes","mouse","bust","marathon","dishes","mouse","bust","experiment","marathon","3","odd","2382","BL","1814660.0","C:\Users\yarbus\Desktop\Team Cat\visual-word-paradigm\temp","1301021","1341544","1808500","1299370","1808500","1299402","1341544","1808440","1840685","NA","1814600","1299378","1809543","1808466","1808329","NA","1810621","1343685","1808463","1299371","experiment-visual-word-paradigm","1816660.0","ran","1389","wolf.mp4","1920"
"11_chicken.ogg","white","legacy","True","C:\Users\yarbus\Desktop\Team Cat\visual-word-paradigm\temp","legacy","legacy","static","C:\Users\yarbus\Desktop\Team Cat\visual-word-paradigm\config.yml","0","0","53","0","53","0","0","53","53","0","53","0","53","53","53","0","53","0","53","0","48.687312384234154","50","Thu Jul 11 19:21:07 2024","20","The main experiment item","False","3548.0000972747803","1343684","pygame-experiment-visual-world-paradigm.osexp","C:\Users\yarbus\Desktop\Team Cat\visual-word-paradigm","black","0","0","medium-open","1000","False","mono","False","32","no","black","no","yes","1080"," ","Look at the screen and listen carefully. press any key to continue","True","mono","black","32","None","None","w","legacy","1","wolf","53","53","farm","C:/Users/yarbus/Desktop/Team Cat/visual-word-paradigm/trials/subject-3.csv","2000","legacy","Melodramatic Milgram","4.0.13","False","mono","black","32","None","380","Pause. Look at the fixation dot in order to continue.","30000","-480","480","-480","480","270","270","-270","-270","1000","0","2","legacy","At the farm, the girl fed the chicken. ","500","1024","2","3.0480000972747803","48000","-16","C:\Users\yarbus\AppData\Local\Temp\tmprj53r2kq.opensesame_pool\11_chicken.ogg","shoppingcart","battery","chicken","basketball","shoppingcart","battery","chicken","basketball","experiment","chicken","3","odd","2193","TL","1848519.0","C:\Users\yarbus\Desktop\Team Cat\visual-word-paradigm\temp","1301021","1341544","1842776","1299370","1842776","1299402","1341544","1842461","1850519","NA","1848482","1299378","1843816","1842500","1840698","NA","1844876","1343685","1842488","1299371","experiment-visual-word-paradigm","1850519.0","fed","1607","wolf.mp4","1920"
"46_badminton.ogg","white","legacy","True","C:\Users\yarbus\Desktop\Team Cat\visual-word-paradigm\temp","legacy","legacy","motion","C:\Users\yarbus\Desktop\Team Cat\visual-word-paradigm\config.yml","0","0","54","0","54","0","0","54","54","0","54","0","54","54","54","0","54","0","54","0","46.12496719998837","50","Thu Jul 11 19:21:07 2024","20","The main experiment item","False","3931.999921798706","1343684","pygame-experiment-visual-world-paradigm.osexp","C:\Users\yarbus\Desktop\Team Cat\visual-word-paradigm","black","0","0","medium-open","1000","False","mono","False","32","no","black","no","yes","1080","46","Look at the screen and listen carefully. press any key to continue","True","mono","black","32","None","None","w","legacy","1","wolf","54","54","stadium","C:/Users/yarbus/Desktop/Team Cat/visual-word-paradigm/trials/subject-3.csv","2000","legacy","Melodramatic Milgram","4.0.13","False","mono","black","32","None","380","Pause. Look at the fixation dot in order to continue.","30000","-480","480","-480","480","270","270","-270","-270","1000","0","2","legacy","At the stadium, the girl played badminton.","500","1024","2","3.431999921798706","48000","-16","C:\Users\yarbus\AppData\Local\Temp\tmprj53r2kq.opensesame_pool\46_badminton.ogg","badminton","cactus","ceilingfan","dishes","badminton","cactus","ceilingfan","dishes","experiment","badminton","3","odd","2416","BL","1856967.0","C:\Users\yarbus\Desktop\Team Cat\visual-word-paradigm\temp","1301021","1341544","1850739","1299370","1850739","1299402","1341544","1850668","1858967","NA","1856917","1299378","1851785","1850708","1850531","NA","1852858","1343685","1850695","1299371","experiment-visual-word-paradigm","1858967.0","played","1705","wolf.mp4","1920"
"35_soccermatch.ogg","white","legacy","True","C:\Users\yarbus\Desktop\Team Cat\visual-word-paradigm\temp","legacy","legacy","motion","C:\Users\yarbus\Desktop\Team Cat\visual-word-paradigm\config.yml","0","0","55","0","55","0","0","55","55","0","55","0","55","55","55","0","55","0","55","0","31.527771346544615","50","Thu Jul 11 19:21:07 2024","20","The main experiment item","False","4292.00005531311","1343684","pygame-experiment-visual-world-paradigm.osexp","C:\Users\yarbus\Desktop\Team Cat\visual-word-paradigm","black","0","0","medium-open","1000","False","mono","False","32","no","black","no","yes","1080","35","Look at the screen and listen carefully. press any key to continue","True","mono","black","32","None","None","w","legacy","1","wolf","55","55","stadium","C:/Users/yarbus/Desktop/Team Cat/visual-word-paradigm/trials/subject-3.csv","2000","legacy","Melodramatic Milgram","4.0.13","False","mono","black","32","None","380","Pause. Look at the fixation dot in order to continue.","30000","-480","480","-480","480","270","270","-270","-270","1000","0","2","legacy","At the stadium, the girl watched a soccer match.","500","1024","2","3.7920000553131104","48000","-16","C:\Users\yarbus\AppData\Local\Temp\tmprj53r2kq.opensesame_pool\35_soccermatch.ogg","soccer","parkfountain","bottlecap","nintendods","soccer","parkfountain","bottlecap","nintendods","experiment","soccer","3","odd","2580","BL","1865767.0","C:\Users\yarbus\Desktop\Team Cat\visual-word-paradigm\temp","1301021","1341544","1859174","1299370","1859174","1299402","1341544","1859106","1867767","NA","1865719","1299378","1860213","1859141","1858979","NA","1861363","1343685","1859129","1299371","experiment-visual-word-paradigm","1867767.0","watched","1652","wolf.mp4","1920"
