"audio","background","canvas_backend","central_fixation","cfg_temp_dir","clock_backend","color_backend","condition","config_path","count_calibration_pygaze_init","count_check_group_selection","count_define_logging","count_experiment","count_fixation","count_instruction_screen","count_latin_square_group_select","count_logsleep","count_new_logger","count_outro_screen","count_pause","count_preprocess_videos","count_preview","count_pygaze_start_recording","count_pygaze_stop_recording","count_readme","count_sentence","count_trial_loop","count_trial_sequence","count_utils","d","d_to_continue","datetime","delay_logsleep","description","disable_garbage_collection","duration","end_time","experiment_file","experiment_path","fixdot_color","fixdot_posx","fixdot_posy","fixdot_style","fixtime","font_bold","font_family","font_italic","font_size","font_underline","foreground","form_clicks","fullscreen","height","index","inst","inst_cnt","inst_font","inst_font_col","inst_font_size","inst_posx","inst_posy","key","keyboard_backend","latin_group","latin_group_name","live_row","live_row_trial_loop","location_cue","logfile","minpause","mouse_backend","opensesame_codename","opensesame_version","pause_cntr","pause_font","pause_font_col","pause_font_size","pause_posx","pause_posy","pause_text","pausetimeout","posx_sstimBL","posx_sstimBR","posx_sstimTL","posx_sstimTR","posy_sstimBL","posy_sstimBR","posy_sstimTL","posy_sstimTR","prevtime","repeat_cycle","round_decimals","sampler_backend","sentence","sentenceoffset","sound_buf_size","sound_channels","sound_duration_ms","sound_freq","sound_sample_size","src","sstimBL","sstimBR","sstimTL","sstimTR","sstim_bl","sstim_br","sstim_tl","sstim_tr","start","stimulus_name","subject_nr","subject_parity","target_cue_timing","target_pos","tcur","temp_dir","time_calibration_pygaze_init","time_check_group_selection","time_define_logging","time_experiment","time_fixation","time_instruction_screen","time_latin_square_group_select","time_logsleep","time_new_logger","time_outro_screen","time_pause","time_preprocess_videos","time_preview","time_pygaze_start_recording","time_pygaze_stop_recording","time_readme","time_sentence","time_trial_loop","time_trial_sequence","time_utils","title","tmin","verb_cue","verb_cue_timing","video_file","width"
"19_sandcastle.ogg","white","legacy","True","C:\Users\yarbus\Desktop\Team Cat\visual-word-paradigm\temp","legacy","legacy","static","C:\Users\yarbus\Desktop\Team Cat\visual-word-paradigm\config.yml","0","0","0","0","0","0","0","0","0","0","0","0","0","0","0","0","0","0","0","0","45.90832043802084","50","Wed Jul 10 16:27:34 2024","20","The main experiment item","False","3476.0000705718994","336606","pygame-experiment-visual-world-paradigm.osexp","C:\Users\yarbus\Desktop\Team Cat\visual-word-paradigm","black","0","0","medium-open","1000","False","mono","False","32","no","black","no","yes","1080","19","Look at the screen and listen carefully. press any key to continue","True","mono","black","32","None","None","w","legacy","1","wolf","0","0","beach","C:/Users/yarbus/Desktop/Team Cat/visual-word-paradigm/trials/subject-7.csv","2000","legacy","Melodramatic Milgram","4.0.13","False","mono","black","32","None","380","Pause. Look at the fixation dot in order to continue.","30000","-480","480","-480","480","270","270","-270","-270","1000","0","2","legacy","At the beach, the girl built a sandcastle.","500","1024","2","2.9760000705718994","48000","-16","C:\Users\yarbus\AppData\Local\Temp\tmpblawj5r9.opensesame_pool\19_sandcastle.ogg","meditation","dart","math","sandcastle","meditation","dart","math","sandcastle","experiment","sandcastle","7","odd","1787","TR","360685.0","C:\Users\yarbus\Desktop\Team Cat\visual-word-paradigm\temp","234550","316214","354621","230506","354621","230539","316214","NA","364736","NA","360635","230516","356028","336620","NA","NA","357093","336607","336613","230509","experiment-visual-word-paradigm","362685.0","built","1169","wolf.mp4","1920"
"16_mouse.ogg","white","legacy","True","C:\Users\yarbus\Desktop\Team Cat\visual-word-paradigm\temp","legacy","legacy","static","C:\Users\yarbus\Desktop\Team Cat\visual-word-paradigm\config.yml","0","0","1","0","1","0","0","1","1","0","1","0","1","1","1","0","1","0","1","0","30.42361663707987","50","Wed Jul 10 16:27:34 2024","20","The main experiment item","False","3740.000009536743","336606","pygame-experiment-visual-world-paradigm.osexp","C:\Users\yarbus\Desktop\Team Cat\visual-word-paradigm","black","0","0","medium-open","1000","False","mono","False","32","no","black","no","yes","1080","16","Look at the screen and listen carefully. press any key to continue","True","mono","black","32","None","None","w","legacy","1","wolf","1","1","desk","C:/Users/yarbus/Desktop/Team Cat/visual-word-paradigm/trials/subject-7.csv","2000","legacy","Melodramatic Milgram","4.0.13","False","mono","black","32","None","380","Pause. Look at the fixation dot in order to continue.","30000","-480","480","-480","480","270","270","-270","-270","1000","0","2","legacy","At her desk, the girl clicked the mouse. ","500","1024","2","3.240000009536743","48000","-16","C:\Users\yarbus\AppData\Local\Temp\tmpblawj5r9.opensesame_pool\16_mouse.ogg","moon","button","mouse","ceilingfan","moon","button","mouse","ceilingfan","experiment","mouse","7","odd","2425","TL","375844.0","C:\Users\yarbus\Desktop\Team Cat\visual-word-paradigm\temp","234550","316214","369877","230506","369877","230539","316214","364806","378098","NA","375786","230516","370926","364831","364746","NA","371990","336607","364830","230509","experiment-visual-word-paradigm","377844.0","clicked","1427","wolf.mp4","1920"
"10_guitar.ogg","white","legacy","True","C:\Users\yarbus\Desktop\Team Cat\visual-word-paradigm\temp","legacy","legacy","static","C:\Users\yarbus\Desktop\Team Cat\visual-word-paradigm\config.yml","0","0","2","0","2","0","0","2","2","0","2","0","2","2","2","0","2","0","2","0","45.90408828851737","50","Wed Jul 10 16:27:34 2024","20","The main experiment item","False","4220.0000286102295","336606","pygame-experiment-visual-world-paradigm.osexp","C:\Users\yarbus\Desktop\Team Cat\visual-word-paradigm","black","0","0","medium-open","1000","False","mono","False","32","no","black","no","yes","1080","10","Look at the screen and listen carefully. press any key to continue","True","mono","black","32","None","None","w","legacy","1","wolf","2","2","musical class","C:/Users/yarbus/Desktop/Team Cat/visual-word-paradigm/trials/subject-7.csv","2000","legacy","Melodramatic Milgram","4.0.13","False","mono","black","32","None","380","Pause. Look at the fixation dot in order to continue.","30000","-480","480","-480","480","270","270","-270","-270","1000","0","2","legacy","During musical class, the girl played guitar. ","500","1024","2","3.7200000286102295","48000","-16","C:\Users\yarbus\AppData\Local\Temp\tmpblawj5r9.opensesame_pool\10_guitar.ogg","chicken","bowl","guitar","hiking","chicken","bowl","guitar","hiking","experiment","guitar","7","odd","2750","TL","384643.0","C:\Users\yarbus\Desktop\Team Cat\visual-word-paradigm\temp","234550","316214","378238","230506","378238","230539","316214","378139","393294","NA","384603","230516","379273","378178","378111","NA","380329","336607","378162","230509","experiment-visual-word-paradigm","386643.0","played","1897","wolf.mp4","1920"
"45_basketball.ogg","white","legacy","True","C:\Users\yarbus\Desktop\Team Cat\visual-word-paradigm\temp","legacy","legacy","motion","C:\Users\yarbus\Desktop\Team Cat\visual-word-paradigm\config.yml","0","0","3","0","3","0","0","3","3","0","3","0","3","3","3","0","3","0","3","0","33.38187480654735","50","Wed Jul 10 16:27:34 2024","20","The main experiment item","False","4196.000099182129","336606","pygame-experiment-visual-world-paradigm.osexp","C:\Users\yarbus\Desktop\Team Cat\visual-word-paradigm","black","0","0","medium-open","1000","False","mono","False","32","no","black","no","yes","1080","45","Look at the screen and listen carefully. press any key to continue","True","mono","black","32","None","None","w","legacy","1","wolf","3","3","sports hall","C:/Users/yarbus/Desktop/Team Cat/visual-word-paradigm/trials/subject-7.csv","2000","legacy","Melodramatic Milgram","4.0.13","False","mono","black","32","None","380","Pause. Look at the fixation dot in order to continue.","30000","-480","480","-480","480","270","270","-270","-270","1000","0","2","legacy","At the sports hall, the girl played basketball.","500","1024","2","3.696000099182129","48000","-16","C:\Users\yarbus\AppData\Local\Temp\tmpblawj5r9.opensesame_pool\45_basketball.ogg","basketball","mitten","clothes","boxtruck","basketball","mitten","clothes","boxtruck","experiment","basketball","7","odd","2613","BL","399891.0","C:\Users\yarbus\Desktop\Team Cat\visual-word-paradigm\temp","234550","316214","393390","230506","393390","230539","316214","393340","403369","NA","399848","230516","394440","393363","393298","NA","395522","336607","393363","230509","experiment-visual-word-paradigm","401891.0","played","1819","wolf.mp4","1920"
"04_banana.ogg","white","legacy","True","C:\Users\yarbus\Desktop\Team Cat\visual-word-paradigm\temp","legacy","legacy","static","C:\Users\yarbus\Desktop\Team Cat\visual-word-paradigm\config.yml","0","0","4","0","4","0","0","4","4","0","4","0","4","4","4","0","4","0","4","0","31.55118620654382","50","Wed Jul 10 16:27:34 2024","20","The main experiment item","False","4003.999948501587","336606","pygame-experiment-visual-world-paradigm.osexp","C:\Users\yarbus\Desktop\Team Cat\visual-word-paradigm","black","0","0","medium-open","1000","False","mono","False","32","no","black","no","yes","1080","4","Look at the screen and listen carefully. press any key to continue","True","mono","black","32","None","None","w","legacy","1","wolf","4","4","breakfast","C:/Users/yarbus/Desktop/Team Cat/visual-word-paradigm/trials/subject-7.csv","2000","legacy","Melodramatic Milgram","4.0.13","False","mono","black","32","None","380","Pause. Look at the fixation dot in order to continue.","30000","-480","480","-480","480","270","270","-270","-270","1000","0","2","legacy","At breakfast, the girl ate a banana.","500","1024","2","3.503999948501587","48000","-16","C:\Users\yarbus\AppData\Local\Temp\tmpblawj5r9.opensesame_pool\04_banana.ogg","pants","videogame","banana","clothes","pants","videogame","banana","clothes","experiment","banana","7","odd","2500","TL","409692.0","C:\Users\yarbus\Desktop\Team Cat\visual-word-paradigm\temp","234550","316214","403475","230506","403475","230539","316214","403410","413558","NA","409651","230516","404518","403445","403380","NA","405602","336607","403433","230509","experiment-visual-word-paradigm","411692.0","ate","1770","wolf.mp4","1920"
"30_cottoncandy.ogg","white","legacy","True","C:\Users\yarbus\Desktop\Team Cat\visual-word-paradigm\temp","legacy","legacy","static","C:\Users\yarbus\Desktop\Team Cat\visual-word-paradigm\config.yml","0","0","5","0","5","0","0","5","5","0","5","0","5","5","5","0","5","0","5","0","44.26005106729997","50","Wed Jul 10 16:27:34 2024","20","The main experiment item","False","4028.0001163482666","336606","pygame-experiment-visual-world-paradigm.osexp","C:\Users\yarbus\Desktop\Team Cat\visual-word-paradigm","black","0","0","medium-open","1000","False","mono","False","32","no","black","no","yes","1080","30","Look at the screen and listen carefully. press any key to continue","True","mono","black","32","None","None","w","legacy","1","wolf","5","5","carnival","C:/Users/yarbus/Desktop/Team Cat/visual-word-paradigm/trials/subject-7.csv","2000","legacy","Melodramatic Milgram","4.0.13","False","mono","black","32","None","380","Pause. Look at the fixation dot in order to continue.","30000","-480","480","-480","480","270","270","-270","-270","1000","0","2","legacy","At the carnival, the girl ate cotton candy.","500","1024","2","3.5280001163482666","48000","-16","C:\Users\yarbus\AppData\Local\Temp\tmpblawj5r9.opensesame_pool\30_cottoncandy.ogg","badminton","armchair","boxingglove","cottoncandy","badminton","armchair","boxingglove","cottoncandy","experiment","cottoncandy","7","odd","2400","TR","419934.0","C:\Users\yarbus\Desktop\Team Cat\visual-word-paradigm\temp","234550","316214","413677","230506","413677","230539","316214","413617","424150","NA","419894","230516","414719","413647","413570","NA","415800","336607","413640","230509","experiment-visual-word-paradigm","421934.0","ate","1970","wolf.mp4","1920"
"48_cigarette.ogg","white","legacy","True","C:\Users\yarbus\Desktop\Team Cat\visual-word-paradigm\temp","legacy","legacy","motion","C:\Users\yarbus\Desktop\Team Cat\visual-word-paradigm\config.yml","0","0","6","0","6","0","0","6","6","0","6","0","6","6","6","0","6","0","6","0","46.69749290743558","50","Wed Jul 10 16:27:34 2024","20","The main experiment item","False","4003.999948501587","336606","pygame-experiment-visual-world-paradigm.osexp","C:\Users\yarbus\Desktop\Team Cat\visual-word-paradigm","black","0","0","medium-open","1000","False","mono","False","32","no","black","no","yes","1080","48","Look at the screen and listen carefully. press any key to continue","True","mono","black","32","None","None","w","legacy","1","wolf","6","6","terrace","C:/Users/yarbus/Desktop/Team Cat/visual-word-paradigm/trials/subject-7.csv","2000","legacy","Melodramatic Milgram","4.0.13","False","mono","black","32","None","380","Pause. Look at the fixation dot in order to continue.","30000","-480","480","-480","480","270","270","-270","-270","1000","0","2","legacy","On the terrace, the girl smoked a cigarette.","500","1024","2","3.503999948501587","48000","-16","C:\Users\yarbus\AppData\Local\Temp\tmpblawj5r9.opensesame_pool\48_cigarette.ogg","cigarette","bicycle","fishing","car","cigarette","bicycle","fishing","car","experiment","cigarette","7","odd","2273","BL","430654.0","C:\Users\yarbus\Desktop\Team Cat\visual-word-paradigm\temp","234550","316214","424252","230506","424252","230539","316214","424193","435479","NA","430611","230516","425287","424218","424162","NA","426460","336607","424216","230509","experiment-visual-word-paradigm","432654.0","smoked","1546","wolf.mp4","1920"
"01_apple.ogg","white","legacy","True","C:\Users\yarbus\Desktop\Team Cat\visual-word-paradigm\temp","legacy","legacy","static","C:\Users\yarbus\Desktop\Team Cat\visual-word-paradigm\config.yml","0","0","7","0","7","0","0","7","7","0","7","0","7","7","7","0","7","0","7","0","15.350931510497915","50","Wed Jul 10 16:27:34 2024","20","The main experiment item","False","3835.9999656677246","336606","pygame-experiment-visual-world-paradigm.osexp","C:\Users\yarbus\Desktop\Team Cat\visual-word-paradigm","black","0","0","medium-open","1000","False","mono","False","32","no","black","no","yes","1080","1","Look at the screen and listen carefully. press any key to continue","True","mono","black","32","None","None","w","legacy","1","wolf","7","7","breakfast","C:/Users/yarbus/Desktop/Team Cat/visual-word-paradigm/trials/subject-7.csv","2000","legacy","Melodramatic Milgram","4.0.13","False","mono","black","32","None","380","Pause. Look at the fixation dot in order to continue.","30000","-480","480","-480","480","270","270","-270","-270","1000","0","2","legacy"," At breakfast, I usually eat an apple.","500","1024","2","3.3359999656677246","48000","-16","C:\Users\yarbus\AppData\Local\Temp\tmpblawj5r9.opensesame_pool\01_apple.ogg","pool","wolf","apple","archery","pool","wolf","apple","archery","experiment","apple","7","odd","2696","TL","441768.0","C:\Users\yarbus\Desktop\Team Cat\visual-word-paradigm\temp","234550","316214","435730","230506","435730","230539","316214","435661","446250","NA","441723","230516","436769","435700","435491","NA","437833","336607","435688","230509","experiment-visual-word-paradigm","443768.0","eat","1657","wolf.mp4","1920"
"42_bicycle.ogg","white","legacy","True","C:\Users\yarbus\Desktop\Team Cat\visual-word-paradigm\temp","legacy","legacy","motion","C:\Users\yarbus\Desktop\Team Cat\visual-word-paradigm\config.yml","0","0","8","0","8","0","0","8","8","0","8","0","8","8","8","0","8","0","8","0","46.751063707257025","50","Wed Jul 10 16:27:34 2024","20","The main experiment item","False","4292.00005531311","336606","pygame-experiment-visual-world-paradigm.osexp","C:\Users\yarbus\Desktop\Team Cat\visual-word-paradigm","black","0","0","medium-open","1000","False","mono","False","32","no","black","no","yes","1080","42","Look at the screen and listen carefully. press any key to continue","True","mono","black","32","None","None","w","legacy","1","wolf","8","8","garage","C:/Users/yarbus/Desktop/Team Cat/visual-word-paradigm/trials/subject-7.csv","2000","legacy","Melodramatic Milgram","4.0.13","False","mono","black","32","None","380","Pause. Look at the fixation dot in order to continue.","30000","-480","480","-480","480","270","270","-270","-270","1000","0","2","legacy","In the garage, the girl fixed her bicycle.","500","1024","2","3.7920000553131104","48000","-16","C:\Users\yarbus\AppData\Local\Temp\tmpblawj5r9.opensesame_pool\42_bicycle.ogg","bicycle","clothes","patioumbrella","card","bicycle","clothes","patioumbrella","card","experiment","bicycle","7","odd","2516","BL","452899.0","C:\Users\yarbus\Desktop\Team Cat\visual-word-paradigm\temp","234550","316214","446363","230506","446363","230539","316214","446305","455809","NA","452850","230516","447412","446329","446255","NA","448470","336607","446328","230509","experiment-visual-word-paradigm","454899.0","fixed","1627","wolf.mp4","1920"
"24_cake.ogg","white","legacy","True","C:\Users\yarbus\Desktop\Team Cat\visual-word-paradigm\temp","legacy","legacy","static","C:\Users\yarbus\Desktop\Team Cat\visual-word-paradigm\config.yml","0","0","9","0","9","0","0","9","9","0","9","0","9","9","9","0","9","0","9","0","14.692331910217609","50","Wed Jul 10 16:27:34 2024","20","The main experiment item","False","3548.0000972747803","336606","pygame-experiment-visual-world-paradigm.osexp","C:\Users\yarbus\Desktop\Team Cat\visual-word-paradigm","black","0","0","medium-open","1000","False","mono","False","32","no","black","no","yes","1080","24","Look at the screen and listen carefully. press any key to continue","True","mono","black","32","None","None","w","legacy","1","wolf","9","9","kitchen","C:/Users/yarbus/Desktop/Team Cat/visual-word-paradigm/trials/subject-7.csv","2000","legacy","Melodramatic Milgram","4.0.13","False","mono","black","32","None","380","Pause. Look at the fixation dot in order to continue.","30000","-480","480","-480","480","270","270","-270","-270","1000","0","2","legacy","In the kitchen, the girl baked a cake.","500","1024","2","3.0480000972747803","48000","-16","C:\Users\yarbus\AppData\Local\Temp\tmpblawj5r9.opensesame_pool\24_cake.ogg","button","cello","seashells","cake","button","cello","seashells","cake","experiment","cake","7","odd","2253","TR","461761.0","C:\Users\yarbus\Desktop\Team Cat\visual-word-paradigm\temp","234550","316214","455970","230506","455970","230539","316214","455899","464439","NA","461708","230516","457025","455938","455824","NA","458105","336607","455922","230509","experiment-visual-word-paradigm","463761.0","baked","1409","wolf.mp4","1920"
"35_soccermatch.ogg","white","legacy","True","C:\Users\yarbus\Desktop\Team Cat\visual-word-paradigm\temp","legacy","legacy","motion","C:\Users\yarbus\Desktop\Team Cat\visual-word-paradigm\config.yml","0","0","10","0","10","0","0","10","10","0","10","0","10","10","10","0","10","0","10","0","39.679373126096614","50","Wed Jul 10 16:27:34 2024","20","The main experiment item","False","4292.00005531311","336606","pygame-experiment-visual-world-paradigm.osexp","C:\Users\yarbus\Desktop\Team Cat\visual-word-paradigm","black","0","0","medium-open","1000","False","mono","False","32","no","black","no","yes","1080","35","Look at the screen and listen carefully. press any key to continue","True","mono","black","32","None","None","w","legacy","1","wolf","10","10","stadium","C:/Users/yarbus/Desktop/Team Cat/visual-word-paradigm/trials/subject-7.csv","2000","legacy","Melodramatic Milgram","4.0.13","False","mono","black","32","None","380","Pause. Look at the fixation dot in order to continue.","30000","-480","480","-480","480","270","270","-270","-270","1000","0","2","legacy","At the stadium, the girl watched a soccer match.","500","1024","2","3.7920000553131104","48000","-16","C:\Users\yarbus\AppData\Local\Temp\tmpblawj5r9.opensesame_pool\35_soccermatch.ogg","soccer","parkfountain","bottlecap","nintendods","soccer","parkfountain","bottlecap","nintendods","experiment","soccer","7","odd","2580","BL","471229.0","C:\Users\yarbus\Desktop\Team Cat\visual-word-paradigm\temp","234550","316214","464591","230506","464591","230539","316214","464527","475207","NA","471196","230516","465636","464555","464442","NA","466770","336607","464553","230509","experiment-visual-word-paradigm","473229.0","watched","1652","wolf.mp4","1920"
"14_card.ogg","white","legacy","True","C:\Users\yarbus\Desktop\Team Cat\visual-word-paradigm\temp","legacy","legacy","static","C:\Users\yarbus\Desktop\Team Cat\visual-word-paradigm\config.yml","0","0","11","0","11","0","0","11","11","0","11","0","11","11","11","0","11","0","11","0","44.9408414981296","50","Wed Jul 10 16:27:34 2024","20","The main experiment item","False","4075.999975204468","336606","pygame-experiment-visual-world-paradigm.osexp","C:\Users\yarbus\Desktop\Team Cat\visual-word-paradigm","black","0","0","medium-open","1000","False","mono","False","32","no","black","no","yes","1080","14","Look at the screen and listen carefully. press any key to continue","True","mono","black","32","None","None","w","legacy","1","wolf","11","11","casino","C:/Users/yarbus/Desktop/Team Cat/visual-word-paradigm/trials/subject-7.csv","2000","legacy","Melodramatic Milgram","4.0.13","False","mono","black","32","None","380","Pause. Look at the fixation dot in order to continue.","30000","-480","480","-480","480","270","270","-270","-270","1000","0","2","legacy","At the casino, the girl picked a card. ","500","1024","2","3.5759999752044678","48000","-16","C:\Users\yarbus\AppData\Local\Temp\tmpblawj5r9.opensesame_pool\14_card.ogg","vegetables","sandcastle","card","parkfountain","vegetables","sandcastle","card","parkfountain","experiment","card","7","odd","2672","TL","481724.0","C:\Users\yarbus\Desktop\Team Cat\visual-word-paradigm\temp","234550","316214","475420","230506","475420","230539","316214","475346","489010","NA","481669","230516","476464","475385","475220","NA","477540","336607","475369","230509","experiment-visual-word-paradigm","483724.0","picked","2075","wolf.mp4","1920"
"57_trails.ogg","white","legacy","True","C:\Users\yarbus\Desktop\Team Cat\visual-word-paradigm\temp","legacy","legacy","motion","C:\Users\yarbus\Desktop\Team Cat\visual-word-paradigm\config.yml","0","0","12","0","12","0","0","12","12","0","12","0","12","12","12","0","12","0","12","0","28.727318513220144","50","Wed Jul 10 16:27:34 2024","20","The main experiment item","False","3859.999895095825","336606","pygame-experiment-visual-world-paradigm.osexp","C:\Users\yarbus\Desktop\Team Cat\visual-word-paradigm","black","0","0","medium-open","1000","False","mono","False","32","no","black","no","yes","1080","57","Look at the screen and listen carefully. press any key to continue","True","mono","black","32","None","None","w","legacy","1","wolf","12","12","forest","C:/Users/yarbus/Desktop/Team Cat/visual-word-paradigm/trials/subject-7.csv","2000","legacy","Melodramatic Milgram","4.0.13","False","mono","black","32","None","380","Pause. Look at the fixation dot in order to continue.","30000","-480","480","-480","480","270","270","-270","-270","1000","0","2","legacy","In the forest, the girl hiked on trails.","500","1024","2","3.359999895095825","48000","-16","C:\Users\yarbus\AppData\Local\Temp\tmpblawj5r9.opensesame_pool\57_trails.ogg","bust","hiking","belt","bathtub","bust","hiking","belt","bathtub","experiment","trails","7","odd","2394","BR","495380.0","C:\Users\yarbus\Desktop\Team Cat\visual-word-paradigm\temp","234550","316214","489174","230506","489174","230539","316214","489112","504633","NA","495328","230516","490214","489142","489012","NA","491349","336607","489135","230509","experiment-visual-word-paradigm","497380.0","hiked","1349","wolf.mp4","1920"
"26_weights.ogg","white","legacy","True","C:\Users\yarbus\Desktop\Team Cat\visual-word-paradigm\temp","legacy","legacy","static","C:\Users\yarbus\Desktop\Team Cat\visual-word-paradigm\config.yml","0","0","13","0","13","0","0","13","13","0","13","0","13","13","13","0","13","0","13","0","46.23251437159788","50","Wed Jul 10 16:27:34 2024","20","The main experiment item","False","3907.9999923706055","336606","pygame-experiment-visual-world-paradigm.osexp","C:\Users\yarbus\Desktop\Team Cat\visual-word-paradigm","black","0","0","medium-open","1000","False","mono","False","32","no","black","no","yes","1080","26","Look at the screen and listen carefully. press any key to continue","True","mono","black","32","None","None","w","legacy","1","wolf","13","13","gym","C:/Users/yarbus/Desktop/Team Cat/visual-word-paradigm/trials/subject-7.csv","2000","legacy","Melodramatic Milgram","4.0.13","False","mono","black","32","None","380","Pause. Look at the fixation dot in order to continue.","30000","-480","480","-480","480","270","270","-270","-270","1000","0","2","legacy","At the gym, the girl lifted weights.","500","1024","2","3.4079999923706055","48000","-16","C:\Users\yarbus\AppData\Local\Temp\tmpblawj5r9.opensesame_pool\26_weights.ogg","croissant","horse","paintcan","weights","croissant","horse","paintcan","weights","experiment","weights","7","odd","2831","TR","510873.0","C:\Users\yarbus\Desktop\Team Cat\visual-word-paradigm\temp","234550","316214","504745","230506","504745","230539","316214","504670","513892","NA","510828","230516","505790","504710","504634","NA","506854","336607","504696","230509","experiment-visual-word-paradigm","512873.0","lifted","1825","wolf.mp4","1920"
"61_cellphone.ogg","white","legacy","True","C:\Users\yarbus\Desktop\Team Cat\visual-word-paradigm\temp","legacy","legacy","motion","C:\Users\yarbus\Desktop\Team Cat\visual-word-paradigm\config.yml","0","0","14","0","14","0","0","14","14","0","14","0","14","14","14","0","14","0","14","0","34.13822599960347","50","Wed Jul 10 16:27:34 2024","20","The main experiment item","False","4868.000030517578","336606","pygame-experiment-visual-world-paradigm.osexp","C:\Users\yarbus\Desktop\Team Cat\visual-word-paradigm","black","0","0","medium-open","1000","False","mono","False","32","no","black","no","yes","1080","61","Look at the screen and listen carefully. press any key to continue","True","mono","black","32","None","None","w","legacy","1","wolf","14","14","cinema","C:/Users/yarbus/Desktop/Team Cat/visual-word-paradigm/trials/subject-7.csv","2000","legacy","Melodramatic Milgram","4.0.13","False","mono","black","32","None","380","Pause. Look at the fixation dot in order to continue.","30000","-480","480","-480","480","270","270","-270","-270","1000","0","2","legacy","In the cinema, the girl turned off her cellphone.","500","1024","2","4.368000030517578","48000","-16","C:\Users\yarbus\AppData\Local\Temp\tmpblawj5r9.opensesame_pool\61_cellphone.ogg","documents","cellphone","badminton","bathtub","documents","cellphone","badminton","bathtub","experiment","cellphone","7","odd","2297","BR","521187.0","C:\Users\yarbus\Desktop\Team Cat\visual-word-paradigm\temp","234550","316214","514034","230506","514034","230539","316214","513968","534009","NA","521131","230516","515064","513998","513904","NA","516199","336607","513991","230509","experiment-visual-word-paradigm","523187.0","turned off","1473","wolf.mp4","1920"
"50_cactus.ogg","white","legacy","True","C:\Users\yarbus\Desktop\Team Cat\visual-word-paradigm\temp","legacy","legacy","motion","C:\Users\yarbus\Desktop\Team Cat\visual-word-paradigm\config.yml","0","0","15","0","15","0","0","15","15","0","15","0","15","15","15","0","15","0","15","0","48.09074468294293","50","Wed Jul 10 16:27:34 2024","20","The main experiment item","False","5179.999828338623","336606","pygame-experiment-visual-world-paradigm.osexp","C:\Users\yarbus\Desktop\Team Cat\visual-word-paradigm","black","0","0","medium-open","1000","False","mono","False","32","no","black","no","yes","1080","50","Look at the screen and listen carefully. press any key to continue","True","mono","black","32","None","None","w","legacy","1","wolf","15","15","botanical garden","C:/Users/yarbus/Desktop/Team Cat/visual-word-paradigm/trials/subject-7.csv","2000","legacy","Melodramatic Milgram","4.0.13","False","mono","black","32","None","380","Pause. Look at the fixation dot in order to continue.","30000","-480","480","-480","480","270","270","-270","-270","1000","0","2","legacy","In the botanical garden, the girl got stung by a cactus.","500","1024","2","4.679999828338623","48000","-16","C:\Users\yarbus\AppData\Local\Temp\tmpblawj5r9.opensesame_pool\50_cactus.ogg","card","cactus","bear","pacifier","card","cactus","bear","pacifier","experiment","cactus","7","odd","3287","BR","541679.0","C:\Users\yarbus\Desktop\Team Cat\visual-word-paradigm\temp","234550","316214","534194","230506","534194","230539","316214","534120","546376","NA","541626","230516","535240","534157","534010","NA","536323","336607","534143","230509","experiment-visual-word-paradigm","543679.0","stung","2326","wolf.mp4","1920"
"51_beer.ogg","white","legacy","True","C:\Users\yarbus\Desktop\Team Cat\visual-word-paradigm\temp","legacy","legacy","motion","C:\Users\yarbus\Desktop\Team Cat\visual-word-paradigm\config.yml","0","0","16","0","16","0","0","16","16","0","16","0","16","16","16","0","16","0","16","0","38.243000526632194","50","Wed Jul 10 16:27:34 2024","20","The main experiment item","False","3308.000087738037","336606","pygame-experiment-visual-world-paradigm.osexp","C:\Users\yarbus\Desktop\Team Cat\visual-word-paradigm","black","0","0","medium-open","1000","False","mono","False","32","no","black","no","yes","1080","51","Look at the screen and listen carefully. press any key to continue","True","mono","black","32","None","None","w","legacy","1","wolf","16","16","bar","C:/Users/yarbus/Desktop/Team Cat/visual-word-paradigm/trials/subject-7.csv","2000","legacy","Melodramatic Milgram","4.0.13","False","mono","black","32","None","380","Pause. Look at the fixation dot in order to continue.","30000","-480","480","-480","480","270","270","-270","-270","1000","0","2","legacy","In the bar, the girl drank beer. ","500","1024","2","2.808000087738037","48000","-16","C:\Users\yarbus\AppData\Local\Temp\tmpblawj5r9.opensesame_pool\51_beer.ogg","treadmill","beer","bathtub","plants","treadmill","beer","bathtub","plants","experiment","beer","7","odd","2090","BR","552149.0","C:\Users\yarbus\Desktop\Team Cat\visual-word-paradigm\temp","234550","316214","546486","230506","546486","230539","316214","546412","554164","NA","552102","230516","547518","546450","546379","NA","548664","336607","546442","230509","experiment-visual-word-paradigm","554149.0","drank","1585","wolf.mp4","1920"
"64_cats.ogg","white","legacy","True","C:\Users\yarbus\Desktop\Team Cat\visual-word-paradigm\temp","legacy","legacy","motion","C:\Users\yarbus\Desktop\Team Cat\visual-word-paradigm\config.yml","0","0","17","0","17","0","0","17","17","0","17","0","17","17","17","0","17","0","17","0","12.597245184563167","50","Wed Jul 10 16:27:34 2024","20","The main experiment item","False","4676.000118255615","336606","pygame-experiment-visual-world-paradigm.osexp","C:\Users\yarbus\Desktop\Team Cat\visual-word-paradigm","black","0","0","medium-open","1000","False","mono","False","32","no","black","no","yes","1080","64","Look at the screen and listen carefully. press any key to continue","True","mono","black","32","None","None","w","legacy","1","wolf","17","17","pet store","C:/Users/yarbus/Desktop/Team Cat/visual-word-paradigm/trials/subject-7.csv","2000","legacy","Melodramatic Milgram","4.0.13","False","mono","black","32","None","380","Pause. Look at the fixation dot in order to continue.","30000","-480","480","-480","480","270","270","-270","-270","1000","0","2","legacy","At the pet store, the girl cuddled with adorable cats.","500","1024","2","4.176000118255615","48000","-16","C:\Users\yarbus\AppData\Local\Temp\tmpblawj5r9.opensesame_pool\64_cats.ogg","battery","cats","paperairplane","ceilingfan","battery","cats","paperairplane","ceilingfan","experiment","cats","7","odd","3384","BR","561353.0","C:\Users\yarbus\Desktop\Team Cat\visual-word-paradigm\temp","234550","316214","554258","230506","554258","230539","316214","554193","565286","NA","561302","230516","555296","554224","554166","NA","556502","336607","554216","230509","experiment-visual-word-paradigm","563353.0","cuddled","1510","wolf.mp4","1920"
"23_novel.ogg","white","legacy","True","C:\Users\yarbus\Desktop\Team Cat\visual-word-paradigm\temp","legacy","legacy","static","C:\Users\yarbus\Desktop\Team Cat\visual-word-paradigm\config.yml","0","0","18","0","18","0","0","18","18","0","18","0","18","18","18","0","18","0","18","0","39.535089218566306","50","Wed Jul 10 16:27:34 2024","20","The main experiment item","False","3523.9999294281006","336606","pygame-experiment-visual-world-paradigm.osexp","C:\Users\yarbus\Desktop\Team Cat\visual-word-paradigm","black","0","0","medium-open","1000","False","mono","False","32","no","black","no","yes","1080","23","Look at the screen and listen carefully. press any key to continue","True","mono","black","32","None","None","w","legacy","1","wolf","18","18","library","C:/Users/yarbus/Desktop/Team Cat/visual-word-paradigm/trials/subject-7.csv","2000","legacy","Melodramatic Milgram","4.0.13","False","mono","black","32","None","380","Pause. Look at the fixation dot in order to continue.","30000","-480","480","-480","480","270","270","-270","-270","1000","0","2","legacy","In the library, the girl read a novel.","500","1024","2","3.0239999294281006","48000","-16","C:\Users\yarbus\AppData\Local\Temp\tmpblawj5r9.opensesame_pool\23_novel.ogg","guitar","bracelet","marshmallow","novel","guitar","bracelet","marshmallow","novel","experiment","novel","7","odd","2220","TR","571124.0","C:\Users\yarbus\Desktop\Team Cat\visual-word-paradigm\temp","234550","316214","565392","230506","565392","230539","316214","565320","573953","NA","571077","230516","566433","565355","565289","NA","567490","336607","565343","230509","experiment-visual-word-paradigm","573124.0","read","1595","wolf.mp4","1920"
"55_frisbee.ogg","white","legacy","True","C:\Users\yarbus\Desktop\Team Cat\visual-word-paradigm\temp","legacy","legacy","motion","C:\Users\yarbus\Desktop\Team Cat\visual-word-paradigm\config.yml","0","0","19","0","19","0","0","19","19","0","19","0","19","19","19","0","19","0","19","0","48.26894898545019","50","Wed Jul 10 16:27:34 2024","20","The main experiment item","False","3716.0000801086426","336606","pygame-experiment-visual-world-paradigm.osexp","C:\Users\yarbus\Desktop\Team Cat\visual-word-paradigm","black","0","0","medium-open","1000","False","mono","False","32","no","black","no","yes","1080","55","Look at the screen and listen carefully. press any key to continue","True","mono","black","32","None","None","w","legacy","1","wolf","19","19","grass","C:/Users/yarbus/Desktop/Team Cat/visual-word-paradigm/trials/subject-7.csv","2000","legacy","Melodramatic Milgram","4.0.13","False","mono","black","32","None","380","Pause. Look at the fixation dot in order to continue.","30000","-480","480","-480","480","270","270","-270","-270","1000","0","2","legacy","On the grass, the girl played frisbee.","500","1024","2","3.2160000801086426","48000","-16","C:\Users\yarbus\AppData\Local\Temp\tmpblawj5r9.opensesame_pool\55_frisbee.ogg","car","frisbee","math","rollercoaster","car","frisbee","math","rollercoaster","experiment","frisbee","7","odd","2036","BR","579982.0","C:\Users\yarbus\Desktop\Team Cat\visual-word-paradigm\temp","234550","316214","574050","230506","574050","230539","316214","573992","583345","NA","579940","230516","575096","574027","573956","NA","576152","336607","574019","230509","experiment-visual-word-paradigm","581982.0","played","1742","wolf.mp4","1920"
"07_clothes.ogg","white","legacy","True","C:\Users\yarbus\Desktop\Team Cat\visual-word-paradigm\temp","legacy","legacy","static","C:\Users\yarbus\Desktop\Team Cat\visual-word-paradigm\config.yml","0","0","20","0","20","0","0","20","20","0","20","0","20","20","20","0","20","0","20","0","33.312513281348245","50","Wed Jul 10 16:27:34 2024","20","The main experiment item","False","4388.000011444092","336606","pygame-experiment-visual-world-paradigm.osexp","C:\Users\yarbus\Desktop\Team Cat\visual-word-paradigm","black","0","0","medium-open","1000","False","mono","False","32","no","black","no","yes","1080","7","Look at the screen and listen carefully. press any key to continue","True","mono","black","32","None","None","w","legacy","1","wolf","20","20","shopping mall","C:/Users/yarbus/Desktop/Team Cat/visual-word-paradigm/trials/subject-7.csv","2000","legacy","Melodramatic Milgram","4.0.13","False","mono","black","32","None","380","Pause. Look at the fixation dot in order to continue.","30000","-480","480","-480","480","270","270","-270","-270","1000","0","2","legacy","In the shopping mall, the girl shopped for clothes.","500","1024","2","3.888000011444092","48000","-16","C:\Users\yarbus\AppData\Local\Temp\tmpblawj5r9.opensesame_pool\07_clothes.ogg","CD","flowers","clothes","cellphone","CD","flowers","clothes","cellphone","experiment","clothes","7","odd","2579","TL","590027.0","C:\Users\yarbus\Desktop\Team Cat\visual-word-paradigm\temp","234550","316214","583432","230506","583432","230539","316214","583379","592032","NA","589988","230516","584479","583410","583348","NA","585541","336607","583402","230509","experiment-visual-word-paradigm","592027.0","shopped","1703","wolf.mp4","1920"
"17_sofa.ogg","white","legacy","True","C:\Users\yarbus\Desktop\Team Cat\visual-word-paradigm\temp","legacy","legacy","static","C:\Users\yarbus\Desktop\Team Cat\visual-word-paradigm\config.yml","0","0","21","0","21","0","0","21","21","0","21","0","21","21","21","0","21","0","21","0","28.678076546379483","50","Wed Jul 10 16:27:34 2024","20","The main experiment item","False","3956.0000896453857","336606","pygame-experiment-visual-world-paradigm.osexp","C:\Users\yarbus\Desktop\Team Cat\visual-word-paradigm","black","0","0","medium-open","1000","False","mono","False","32","no","black","no","yes","1080","17","Look at the screen and listen carefully. press any key to continue","True","mono","black","32","None","None","w","legacy","1","wolf","21","21","living room","C:/Users/yarbus/Desktop/Team Cat/visual-word-paradigm/trials/subject-7.csv","2000","legacy","Melodramatic Milgram","4.0.13","False","mono","black","32","None","380","Pause. Look at the fixation dot in order to continue.","30000","-480","480","-480","480","270","270","-270","-270","1000","0","2","legacy","In the living room, the girl sat on a sofa. ","500","1024","2","3.4560000896453857","48000","-16","C:\Users\yarbus\AppData\Local\Temp\tmpblawj5r9.opensesame_pool\17_sofa.ogg","kite","egg","pencilsharpener","sofa","kite","egg","pencilsharpener","sofa","experiment","sofa","7","odd","2636","TR","598316.0","C:\Users\yarbus\Desktop\Team Cat\visual-word-paradigm\temp","234550","316214","592140","230506","592140","230539","316214","592068","601028","NA","598274","230516","593187","592105","592035","NA","594269","336607","592091","230509","experiment-visual-word-paradigm","600316.0","sat","1619","wolf.mp4","1920"
"32_flowers.ogg","white","legacy","True","C:\Users\yarbus\Desktop\Team Cat\visual-word-paradigm\temp","legacy","legacy","static","C:\Users\yarbus\Desktop\Team Cat\visual-word-paradigm\config.yml","0","0","22","0","22","0","0","22","22","0","22","0","22","22","22","0","22","0","22","0","48.85261122683204","50","Wed Jul 10 16:27:34 2024","20","The main experiment item","False","3691.999912261963","336606","pygame-experiment-visual-world-paradigm.osexp","C:\Users\yarbus\Desktop\Team Cat\visual-word-paradigm","black","0","0","medium-open","1000","False","mono","False","32","no","black","no","yes","1080","32","Look at the screen and listen carefully. press any key to continue","True","mono","black","32","None","None","w","legacy","1","wolf","22","22","garden","C:/Users/yarbus/Desktop/Team Cat/visual-word-paradigm/trials/subject-7.csv","2000","legacy","Melodramatic Milgram","4.0.13","False","mono","black","32","None","380","Pause. Look at the fixation dot in order to continue.","30000","-480","480","-480","480","270","270","-270","-270","1000","0","2","legacy","In the garden, the girl planted flowers.","500","1024","2","3.191999912261963","48000","-16","C:\Users\yarbus\AppData\Local\Temp\tmpblawj5r9.opensesame_pool\32_flowers.ogg","nailclipper","beer","baggage","flowers","nailclipper","beer","baggage","flowers","experiment","flowers","7","odd","2155","TR","607050.0","C:\Users\yarbus\Desktop\Team Cat\visual-word-paradigm\temp","234550","316214","601128","230506","601128","230539","316214","601057","609050","NA","606997","230516","602173","601097","601032","NA","603251","336607","601083","230509","experiment-visual-word-paradigm","609050.0","planted","1771","wolf.mp4","1920"
"38_plants.ogg","white","legacy","True","C:\Users\yarbus\Desktop\Team Cat\visual-word-paradigm\temp","legacy","legacy","motion","C:\Users\yarbus\Desktop\Team Cat\visual-word-paradigm\config.yml","0","0","23","0","23","0","0","23","23","0","23","0","23","23","23","0","23","0","23","0","42.405357676595536","50","Wed Jul 10 16:27:34 2024","20","The main experiment item","False","4099.999904632568","336606","pygame-experiment-visual-world-paradigm.osexp","C:\Users\yarbus\Desktop\Team Cat\visual-word-paradigm","black","0","0","medium-open","1000","False","mono","False","32","no","black","no","yes","1080","38","Look at the screen and listen carefully. press any key to continue","True","mono","black","32","None","None","w","legacy","1","wolf","23","23","backyard","C:/Users/yarbus/Desktop/Team Cat/visual-word-paradigm/trials/subject-7.csv","2000","legacy","Melodramatic Milgram","4.0.13","False","mono","black","32","None","380","Pause. Look at the fixation dot in order to continue.","30000","-480","480","-480","480","270","270","-270","-270","1000","0","2","legacy","In the backyard, the girl watered the plants.","500","1024","2","3.5999999046325684","48000","-16","C:\Users\yarbus\AppData\Local\Temp\tmpblawj5r9.opensesame_pool\38_plants.ogg","plants","paintcan","brick","calendar","plants","paintcan","brick","calendar","experiment","plants","7","odd","2387","BL","615576.0","C:\Users\yarbus\Desktop\Team Cat\visual-word-paradigm\temp","234550","316214","609169","230506","609169","230539","316214","609096","620196","NA","615538","230516","610212","609132","609062","NA","611305","336607","609119","230509","experiment-visual-word-paradigm","617576.0","watered","1510","wolf.mp4","1920"
"47_baggage.ogg","white","legacy","True","C:\Users\yarbus\Desktop\Team Cat\visual-word-paradigm\temp","legacy","legacy","motion","C:\Users\yarbus\Desktop\Team Cat\visual-word-paradigm\config.yml","0","0","24","0","24","0","0","24","24","0","24","0","24","24","24","0","24","0","24","0","29.430941954344547","50","Wed Jul 10 16:27:34 2024","20","The main experiment item","False","4676.000118255615","336606","pygame-experiment-visual-world-paradigm.osexp","C:\Users\yarbus\Desktop\Team Cat\visual-word-paradigm","black","0","0","medium-open","1000","False","mono","False","32","no","black","no","yes","1080","47","Look at the screen and listen carefully. press any key to continue","True","mono","black","32","None","None","w","legacy","1","wolf","24","24","airport","C:/Users/yarbus/Desktop/Team Cat/visual-word-paradigm/trials/subject-7.csv","2000","legacy","Melodramatic Milgram","4.0.13","False","mono","black","32","None","380","Pause. Look at the fixation dot in order to continue.","30000","-480","480","-480","480","270","270","-270","-270","1000","0","2","legacy","At the airport, the girl waited at the baggage claim.","500","1024","2","4.176000118255615","48000","-16","C:\Users\yarbus\AppData\Local\Temp\tmpblawj5r9.opensesame_pool\47_baggage.ogg","baggage","rollercoaster","basketballhoop","croissant","baggage","rollercoaster","basketballhoop","croissant","experiment","baggage","7","odd","2756","BL","627244.0","C:\Users\yarbus\Desktop\Team Cat\visual-word-paradigm\temp","234550","316214","620294","230506","620294","230539","316214","620236","631803","NA","627199","230516","621332","620266","620209","NA","622415","336607","620259","230509","experiment-visual-word-paradigm","629244.0","waited","1593","wolf.mp4","1920"
"40_shopping_cart.ogg","white","legacy","True","C:\Users\yarbus\Desktop\Team Cat\visual-word-paradigm\temp","legacy","legacy","motion","C:\Users\yarbus\Desktop\Team Cat\visual-word-paradigm\config.yml","0","0","25","0","25","0","0","25","25","0","25","0","25","25","25","0","25","0","25","0","37.55206967398739","50","Wed Jul 10 16:27:34 2024","20","The main experiment item","False","4796.000003814697","336606","pygame-experiment-visual-world-paradigm.osexp","C:\Users\yarbus\Desktop\Team Cat\visual-word-paradigm","black","0","0","medium-open","1000","False","mono","False","32","no","black","no","yes","1080","40","Look at the screen and listen carefully. press any key to continue","True","mono","black","32","None","None","w","legacy","1","wolf","25","25","grocery store","C:/Users/yarbus/Desktop/Team Cat/visual-word-paradigm/trials/subject-7.csv","2000","legacy","Melodramatic Milgram","4.0.13","False","mono","black","32","None","380","Pause. Look at the fixation dot in order to continue.","30000","-480","480","-480","480","270","270","-270","-270","1000","0","2","legacy","At the grocery store, the girl pushed the shopping cart","500","1024","2","4.296000003814697","48000","-16","C:\Users\yarbus\AppData\Local\Temp\tmpblawj5r9.opensesame_pool\40_shopping_cart.ogg","shoppingcart","nintendods","bulldozer","paperclip","shoppingcart","nintendods","bulldozer","paperclip","experiment","shoppingcart","7","odd","3355","BL","639060.0","C:\Users\yarbus\Desktop\Team Cat\visual-word-paradigm\temp","234550","316214","631990","230506","631991","230539","316214","631931","647290","NA","639011","230516","633033","631966","631806","NA","634096","336607","631957","230509","experiment-visual-word-paradigm","641060.0","pushed","2390","wolf.mp4","1920"
"56_marshmallows.ogg","white","legacy","True","C:\Users\yarbus\Desktop\Team Cat\visual-word-paradigm\temp","legacy","legacy","motion","C:\Users\yarbus\Desktop\Team Cat\visual-word-paradigm\config.yml","0","0","26","0","26","0","0","26","26","0","26","0","26","26","26","0","26","0","26","0","18.80164411534269","50","Wed Jul 10 16:27:34 2024","20","The main experiment item","False","4507.999897003174","336606","pygame-experiment-visual-world-paradigm.osexp","C:\Users\yarbus\Desktop\Team Cat\visual-word-paradigm","black","0","0","medium-open","1000","False","mono","False","32","no","black","no","yes","1080","56","Look at the screen and listen carefully. press any key to continue","True","mono","black","32","None","None","w","legacy","1","wolf","26","26","campfire","C:/Users/yarbus/Desktop/Team Cat/visual-word-paradigm/trials/subject-7.csv","2000","legacy","Melodramatic Milgram","4.0.13","False","mono","black","32","None","380","Pause. Look at the fixation dot in order to continue.","30000","-480","480","-480","480","270","270","-270","-270","1000","0","2","legacy","At the campfire, the girl roasted marshmallows.","500","1024","2","4.007999897003174","48000","-16","C:\Users\yarbus\AppData\Local\Temp\tmpblawj5r9.opensesame_pool\56_marshmallows.ogg","card","marshmallow","dice","mouse","card","marshmallow","dice","mouse","experiment","marshmallow","7","odd","2892","BR","680196.0","C:\Users\yarbus\Desktop\Team Cat\visual-word-paradigm\temp","234550","316214","656368","230506","656368","230539","316214","647327","684910","NA","680149","230516","666376","647363","647293","NA","675493","336607","647351","230509","experiment-visual-word-paradigm","682196.0","roasted","2167","wolf.mp4","1920"
"18_armchair.ogg","white","legacy","True","C:\Users\yarbus\Desktop\Team Cat\visual-word-paradigm\temp","legacy","legacy","static","C:\Users\yarbus\Desktop\Team Cat\visual-word-paradigm\config.yml","0","0","27","0","27","0","0","27","27","0","27","0","27","27","27","0","27","0","27","0","44.16215603432421","50","Wed Jul 10 16:27:34 2024","20","The main experiment item","False","3788.0001068115234","336606","pygame-experiment-visual-world-paradigm.osexp","C:\Users\yarbus\Desktop\Team Cat\visual-word-paradigm","black","0","0","medium-open","1000","False","mono","False","32","no","black","no","yes","1080","18","Look at the screen and listen carefully. press any key to continue","True","mono","black","32","None","None","w","legacy","1","wolf","27","27","living room","C:/Users/yarbus/Desktop/Team Cat/visual-word-paradigm/trials/subject-7.csv","2000","legacy","Melodramatic Milgram","4.0.13","False","mono","black","32","None","380","Pause. Look at the fixation dot in order to continue.","30000","-480","480","-480","480","270","270","-270","-270","1000","0","2","legacy","In the living room, the girl sat in an armchair.","500","1024","2","3.2880001068115234","48000","-16","C:\Users\yarbus\AppData\Local\Temp\tmpblawj5r9.opensesame_pool\18_armchair.ogg","wolf","battleship","frisbee","armchair","wolf","battleship","frisbee","armchair","experiment","armchair","7","odd","2048","TR","691001.0","C:\Users\yarbus\Desktop\Team Cat\visual-word-paradigm\temp","234550","316214","685005","230506","685006","230539","316214","684948","693402","NA","690955","230516","686052","684973","684913","NA","687107","336607","684971","230509","experiment-visual-word-paradigm","693001.0","sat","1290","wolf.mp4","1920"
"41_drinks.ogg","white","legacy","True","C:\Users\yarbus\Desktop\Team Cat\visual-word-paradigm\temp","legacy","legacy","motion","C:\Users\yarbus\Desktop\Team Cat\visual-word-paradigm\config.yml","0","0","28","0","28","0","0","28","28","0","28","0","28","28","28","0","28","0","28","0","12.296765311251562","50","Wed Jul 10 16:27:34 2024","20","The main experiment item","False","4075.999975204468","336606","pygame-experiment-visual-world-paradigm.osexp","C:\Users\yarbus\Desktop\Team Cat\visual-word-paradigm","black","0","0","medium-open","1000","False","mono","False","32","no","black","no","yes","1080","41","Look at the screen and listen carefully. press any key to continue","True","mono","black","32","None","None","w","legacy","1","wolf","28","28","party","C:/Users/yarbus/Desktop/Team Cat/visual-word-paradigm/trials/subject-7.csv","2000","legacy","Melodramatic Milgram","4.0.13","False","mono","black","32","None","380","Pause. Look at the fixation dot in order to continue.","30000","-480","480","-480","480","270","270","-270","-270","1000","0","2","legacy","At the party, the girl served drinks to the guests.","500","1024","2","3.5759999752044678","48000","-16","C:\Users\yarbus\AppData\Local\Temp\tmpblawj5r9.opensesame_pool\41_drinks.ogg","drinks","nailclipper","cats","shoppingcart","drinks","nailclipper","cats","shoppingcart","experiment","drinks","7","odd","2115","BL","699908.0","C:\Users\yarbus\Desktop\Team Cat\visual-word-paradigm\temp","234550","316214","693524","230506","693524","230539","316214","693452","701908","NA","699859","230516","694572","693494","693415","NA","695675","336607","693478","230509","experiment-visual-word-paradigm","701908.0","served","1333","wolf.mp4","1920"
"49_blood.ogg","white","legacy","True","C:\Users\yarbus\Desktop\Team Cat\visual-word-paradigm\temp","legacy","legacy","motion","C:\Users\yarbus\Desktop\Team Cat\visual-word-paradigm\config.yml","0","0","29","0","29","0","0","29","29","0","29","0","29","29","29","0","29","0","29","0","38.24298329994671","50","Wed Jul 10 16:27:34 2024","20","The main experiment item","False","4267.999887466431","336606","pygame-experiment-visual-world-paradigm.osexp","C:\Users\yarbus\Desktop\Team Cat\visual-word-paradigm","black","0","0","medium-open","1000","False","mono","False","32","no","black","no","yes","1080","49","Look at the screen and listen carefully. press any key to continue","True","mono","black","32","None","None","w","legacy","1","wolf","29","29","hospital","C:/Users/yarbus/Desktop/Team Cat/visual-word-paradigm/trials/subject-7.csv","2000","legacy","Melodramatic Milgram","4.0.13","False","mono","black","32","None","380","Pause. Look at the fixation dot in order to continue.","30000","-480","480","-480","480","270","270","-270","-270","1000","0","2","legacy","In the hospital, the girl donated blood.","500","1024","2","3.7679998874664307","48000","-16","C:\Users\yarbus\AppData\Local\Temp\tmpblawj5r9.opensesame_pool\49_blood.ogg","calendar","blood","archery","boxingglove","calendar","blood","archery","boxingglove","experiment","blood","7","odd","2734","BR","708536.0","C:\Users\yarbus\Desktop\Team Cat\visual-word-paradigm\temp","234550","316214","702017","230506","702017","230539","316214","701943","737264","NA","708489","230516","703061","701981","701911","NA","704145","336607","701966","230509","experiment-visual-word-paradigm","710536.0","donated","1890","wolf.mp4","1920"
"03_sandwich.ogg","white","legacy","True","C:\Users\yarbus\Desktop\Team Cat\visual-word-paradigm\temp","legacy","legacy","static","C:\Users\yarbus\Desktop\Team Cat\visual-word-paradigm\config.yml","0","0","30","0","30","0","0","30","30","0","30","0","30","30","30","0","30","0","30","0","38.3795918956937","50","Wed Jul 10 16:27:34 2024","20","The main experiment item","False","4099.999904632568","336606","pygame-experiment-visual-world-paradigm.osexp","C:\Users\yarbus\Desktop\Team Cat\visual-word-paradigm","black","0","0","medium-open","1000","False","mono","False","32","no","black","no","yes","1080","3","Look at the screen and listen carefully. press any key to continue","True","mono","black","32","None","None","w","legacy","1","wolf","30","30","dinner time","C:/Users/yarbus/Desktop/Team Cat/visual-word-paradigm/trials/subject-7.csv","2000","legacy","Melodramatic Milgram","4.0.13","False","mono","black","32","None","380","Pause. Look at the fixation dot in order to continue.","30000","-480","480","-480","480","270","270","-270","-270","1000","0","2","legacy","At dinner time, the girl ate a sandwich.","500","1024","2","3.5999999046325684","48000","-16","C:\Users\yarbus\AppData\Local\Temp\tmpblawj5r9.opensesame_pool\03_sandwich.ogg","bulldozer","belt","sandwich","patioumbrella","bulldozer","belt","sandwich","patioumbrella","experiment","sandwich","7","odd","2711","TL","743713.0","C:\Users\yarbus\Desktop\Team Cat\visual-word-paradigm\temp","234550","316214","737364","230506","737364","230539","316214","737304","746631","NA","743649","230516","738409","737331","737276","NA","739496","336607","737328","230509","experiment-visual-word-paradigm","745713.0","ate","2287","wolf.mp4","1920"
"63_meditation.ogg","white","legacy","True","C:\Users\yarbus\Desktop\Team Cat\visual-word-paradigm\temp","legacy","legacy","motion","C:\Users\yarbus\Desktop\Team Cat\visual-word-paradigm\config.yml","0","0","31","0","31","0","0","31","31","0","31","0","31","31","31","0","31","0","31","0","29.368091508982967","50","Wed Jul 10 16:27:34 2024","20","The main experiment item","False","4748.000144958496","336606","pygame-experiment-visual-world-paradigm.osexp","C:\Users\yarbus\Desktop\Team Cat\visual-word-paradigm","black","0","0","medium-open","1000","False","mono","False","32","no","black","no","yes","1080","63","Look at the screen and listen carefully. press any key to continue","True","mono","black","32","None","None","w","legacy","1","wolf","31","31","yoga class","C:/Users/yarbus/Desktop/Team Cat/visual-word-paradigm/trials/subject-7.csv","2000","legacy","Melodramatic Milgram","4.0.13","False","mono","black","32","None","380","Pause. Look at the fixation dot in order to continue.","30000","-480","480","-480","480","270","270","-270","-270","1000","0","2","legacy","During yoga class, the girl practised meditation. ","500","1024","2","4.248000144958496","48000","-16","C:\Users\yarbus\AppData\Local\Temp\tmpblawj5r9.opensesame_pool\63_meditation.ogg","barbecue","meditation","mitten","bookshelf","barbecue","meditation","mitten","bookshelf","experiment","meditation","7","odd","3105","BR","753741.0","C:\Users\yarbus\Desktop\Team Cat\visual-word-paradigm\temp","234550","316214","746729","230506","746729","230539","316214","746656","755864","NA","753702","230516","747773","746696","746634","NA","748879","336607","746683","230509","experiment-visual-word-paradigm","755741.0","practised","2119","wolf.mp4","1920"
"44_bathtub.ogg","white","legacy","True","C:\Users\yarbus\Desktop\Team Cat\visual-word-paradigm\temp","legacy","legacy","motion","C:\Users\yarbus\Desktop\Team Cat\visual-word-paradigm\config.yml","0","0","32","0","32","0","0","32","32","0","32","0","32","32","32","0","32","0","32","0","45.4942020464147","50","Wed Jul 10 16:27:34 2024","20","The main experiment item","False","4099.999904632568","336606","pygame-experiment-visual-world-paradigm.osexp","C:\Users\yarbus\Desktop\Team Cat\visual-word-paradigm","black","0","0","medium-open","1000","False","mono","False","32","no","black","no","yes","1080","44","Look at the screen and listen carefully. press any key to continue","True","mono","black","32","None","None","w","legacy","1","wolf","32","32","spa","C:/Users/yarbus/Desktop/Team Cat/visual-word-paradigm/trials/subject-7.csv","2000","legacy","Melodramatic Milgram","4.0.13","False","mono","black","32","None","380","Pause. Look at the fixation dot in order to continue.","30000","-480","480","-480","480","270","270","-270","-270","1000","0","2","legacy","In the spa, the girl relaxed in the bathtub.","500","1024","2","3.5999999046325684","48000","-16","C:\Users\yarbus\AppData\Local\Temp\tmpblawj5r9.opensesame_pool\44_bathtub.ogg","bathtub","wedding","dog","moon","bathtub","wedding","dog","moon","experiment","bathtub","7","odd","2713","BL","762407.0","C:\Users\yarbus\Desktop\Team Cat\visual-word-paradigm\temp","234550","316214","755971","230506","755971","230539","316214","755919","765494","NA","762354","230516","757017","755945","755867","NA","758169","336607","755943","230509","experiment-visual-word-paradigm","764407.0","relaxed","1683","wolf.mp4","1920"
"05_cookie.ogg","white","legacy","True","C:\Users\yarbus\Desktop\Team Cat\visual-word-paradigm\temp","legacy","legacy","static","C:\Users\yarbus\Desktop\Team Cat\visual-word-paradigm\config.yml","0","0","33","0","33","0","0","33","33","0","33","0","33","33","33","0","33","0","33","0","34.444699184635034","50","Wed Jul 10 16:27:34 2024","20","The main experiment item","False","3907.9999923706055","336606","pygame-experiment-visual-world-paradigm.osexp","C:\Users\yarbus\Desktop\Team Cat\visual-word-paradigm","black","0","0","medium-open","1000","False","mono","False","32","no","black","no","yes","1080","5","Look at the screen and listen carefully. press any key to continue","True","mono","black","32","None","None","w","legacy","1","wolf","33","33","breakfast","C:/Users/yarbus/Desktop/Team Cat/visual-word-paradigm/trials/subject-7.csv","2000","legacy","Melodramatic Milgram","4.0.13","False","mono","black","32","None","380","Pause. Look at the fixation dot in order to continue.","30000","-480","480","-480","480","270","270","-270","-270","1000","0","2","legacy","At breakfast, the girl ate a cookie.","500","1024","2","3.4079999923706055","48000","-16","C:\Users\yarbus\AppData\Local\Temp\tmpblawj5r9.opensesame_pool\05_cookie.ogg","pants","nailclipper","cookie","movie","pants","nailclipper","cookie","movie","experiment","cookie","7","odd","2350","TL","771732.0","C:\Users\yarbus\Desktop\Team Cat\visual-word-paradigm\temp","234550","316214","765589","230506","765589","230539","316214","765530","790592","NA","771677","230516","766636","765567","765504","NA","767706","336607","765553","230509","experiment-visual-word-paradigm","773732.0","ate","1740","wolf.mp4","1920"
"52_pool.ogg","white","legacy","True","C:\Users\yarbus\Desktop\Team Cat\visual-word-paradigm\temp","legacy","legacy","motion","C:\Users\yarbus\Desktop\Team Cat\visual-word-paradigm\config.yml","0","0","34","0","34","0","0","34","34","0","34","0","34","34","34","0","34","0","34","0","43.69718617394029","50","Wed Jul 10 16:27:34 2024","20","The main experiment item","False","3548.0000972747803","336606","pygame-experiment-visual-world-paradigm.osexp","C:\Users\yarbus\Desktop\Team Cat\visual-word-paradigm","black","0","0","medium-open","1000","False","mono","False","32","no","black","no","yes","1080","52","Look at the screen and listen carefully. press any key to continue","True","mono","black","32","None","None","w","legacy","1","wolf","34","34","bar","C:/Users/yarbus/Desktop/Team Cat/visual-word-paradigm/trials/subject-7.csv","2000","legacy","Melodramatic Milgram","4.0.13","False","mono","black","32","None","380","Pause. Look at the fixation dot in order to continue.","30000","-480","480","-480","480","270","270","-270","-270","1000","0","2","legacy","In the bar, the girl played pool.","500","1024","2","3.0480000972747803","48000","-16","C:\Users\yarbus\AppData\Local\Temp\tmpblawj5r9.opensesame_pool\52_pool.ogg","paperairplane","pool","calculator","dance","paperairplane","pool","calculator","dance","experiment","pool","7","odd","1993","BR","796480.0","C:\Users\yarbus\Desktop\Team Cat\visual-word-paradigm\temp","234550","316214","790707","230506","790707","230539","316214","790640","802131","NA","796435","230516","791751","790672","790596","NA","792820","336607","790669","230509","experiment-visual-word-paradigm","798480.0","played","1298","wolf.mp4","1920"
"27_treadmill.ogg","white","legacy","True","C:\Users\yarbus\Desktop\Team Cat\visual-word-paradigm\temp","legacy","legacy","static","C:\Users\yarbus\Desktop\Team Cat\visual-word-paradigm\config.yml","0","0","35","0","35","0","0","35","35","0","35","0","35","35","35","0","35","0","35","0","30.6491917309413","50","Wed Jul 10 16:27:34 2024","20","The main experiment item","False","4339.9999141693115","336606","pygame-experiment-visual-world-paradigm.osexp","C:\Users\yarbus\Desktop\Team Cat\visual-word-paradigm","black","0","0","medium-open","1000","False","mono","False","32","no","black","no","yes","1080","27","Look at the screen and listen carefully. press any key to continue","True","mono","black","32","None","None","w","legacy","1","wolf","35","35","gym","C:/Users/yarbus/Desktop/Team Cat/visual-word-paradigm/trials/subject-7.csv","2000","legacy","Melodramatic Milgram","4.0.13","False","mono","black","32","None","380","Pause. Look at the fixation dot in order to continue.","30000","-480","480","-480","480","270","270","-270","-270","1000","0","2","legacy","At the gym, the girl ran on the treadmill.","500","1024","2","3.8399999141693115","48000","-16","C:\Users\yarbus\AppData\Local\Temp\tmpblawj5r9.opensesame_pool\27_treadmill.ogg","oven","duck","belt","treadmill","oven","duck","belt","treadmill","experiment","treadmill","7","odd","2689","TR","808789.0","C:\Users\yarbus\Desktop\Team Cat\visual-word-paradigm\temp","234550","316214","802217","230506","802217","230539","316214","802160","810820","NA","808740","230516","803272","802191","802133","NA","804338","336607","802183","230509","experiment-visual-word-paradigm","810789.0","ran","1849","wolf.mp4","1920"
"60_tree.ogg","white","legacy","True","C:\Users\yarbus\Desktop\Team Cat\visual-word-paradigm\temp","legacy","legacy","motion","C:\Users\yarbus\Desktop\Team Cat\visual-word-paradigm\config.yml","0","0","36","0","36","0","0","36","36","0","36","0","36","36","36","0","36","0","36","0","48.42851144522201","50","Wed Jul 10 16:27:34 2024","20","The main experiment item","False","4267.999887466431","336606","pygame-experiment-visual-world-paradigm.osexp","C:\Users\yarbus\Desktop\Team Cat\visual-word-paradigm","black","0","0","medium-open","1000","False","mono","False","32","no","black","no","yes","1080","60","Look at the screen and listen carefully. press any key to continue","True","mono","black","32","None","None","w","legacy","1","wolf","36","36","forest","C:/Users/yarbus/Desktop/Team Cat/visual-word-paradigm/trials/subject-7.csv","2000","legacy","Melodramatic Milgram","4.0.13","False","mono","black","32","None","380","Pause. Look at the fixation dot in order to continue.","30000","-480","480","-480","480","270","270","-270","-270","1000","0","2","legacy","In the forest, the girl cut down a tree.","500","1024","2","3.7679998874664307","48000","-16","C:\Users\yarbus\AppData\Local\Temp\tmpblawj5r9.opensesame_pool\60_tree.ogg","bookshelf","tree","calculator","cactus","bookshelf","tree","calculator","cactus","experiment","tree","7","odd","2469","BR","817574.0","C:\Users\yarbus\Desktop\Team Cat\visual-word-paradigm\temp","234550","316214","810934","230506","810934","230539","316214","810876","821249","NA","817522","230516","811983","810901","810845","NA","813103","336607","810899","230509","experiment-visual-word-paradigm","819574.0","cut","1377","wolf.mp4","1920"
"39_clothes.ogg","white","legacy","True","C:\Users\yarbus\Desktop\Team Cat\visual-word-paradigm\temp","legacy","legacy","motion","C:\Users\yarbus\Desktop\Team Cat\visual-word-paradigm\config.yml","0","0","37","0","37","0","0","37","37","0","37","0","37","37","37","0","37","0","37","0","42.79900943152768","50","Wed Jul 10 16:27:34 2024","20","The main experiment item","False","4243.99995803833","336606","pygame-experiment-visual-world-paradigm.osexp","C:\Users\yarbus\Desktop\Team Cat\visual-word-paradigm","black","0","0","medium-open","1000","False","mono","False","32","no","black","no","yes","1080","39","Look at the screen and listen carefully. press any key to continue","True","mono","black","32","None","None","w","legacy","1","wolf","37","37","laundromat","C:/Users/yarbus/Desktop/Team Cat/visual-word-paradigm/trials/subject-7.csv","2000","legacy","Melodramatic Milgram","4.0.13","False","mono","black","32","None","380","Pause. Look at the fixation dot in order to continue.","30000","-480","480","-480","480","270","270","-270","-270","1000","0","2","legacy","At the laundromat, the girl washed her clothes.","500","1024","2","3.74399995803833","48000","-16","C:\Users\yarbus\AppData\Local\Temp\tmpblawj5r9.opensesame_pool\39_clothes.ogg","clothes","bookshelf","horse","armchair","clothes","bookshelf","horse","armchair","experiment","clothes","7","odd","2812","BL","827886.0","C:\Users\yarbus\Desktop\Team Cat\visual-word-paradigm\temp","234550","316214","821382","230506","821382","230539","316214","821308","831416","NA","827843","230516","822426","821348","821262","NA","823518","336607","821332","230509","experiment-visual-word-paradigm","829886.0","washed","2027","wolf.mp4","1920"
"43_car.ogg","white","legacy","True","C:\Users\yarbus\Desktop\Team Cat\visual-word-paradigm\temp","legacy","legacy","motion","C:\Users\yarbus\Desktop\Team Cat\visual-word-paradigm\config.yml","0","0","38","0","38","0","0","38","38","0","38","0","38","38","38","0","38","0","38","0","46.76948198815122","50","Wed Jul 10 16:27:34 2024","20","The main experiment item","False","3956.0000896453857","336606","pygame-experiment-visual-world-paradigm.osexp","C:\Users\yarbus\Desktop\Team Cat\visual-word-paradigm","black","0","0","medium-open","1000","False","mono","False","32","no","black","no","yes","1080","43","Look at the screen and listen carefully. press any key to continue","True","mono","black","32","None","None","w","legacy","1","wolf","38","38","garage","C:/Users/yarbus/Desktop/Team Cat/visual-word-paradigm/trials/subject-7.csv","2000","legacy","Melodramatic Milgram","4.0.13","False","mono","black","32","None","380","Pause. Look at the fixation dot in order to continue.","30000","-480","480","-480","480","270","270","-270","-270","1000","0","2","legacy","In the garage, the girl washed her car.","500","1024","2","3.4560000896453857","48000","-16","C:\Users\yarbus\AppData\Local\Temp\tmpblawj5r9.opensesame_pool\43_car.ogg","car","cd","brainmodel","bear","car","cd","brainmodel","bear","experiment","car","7","odd","2227","BL","837798.0","C:\Users\yarbus\Desktop\Team Cat\visual-word-paradigm\temp","234550","316214","831523","230506","831523","230539","316214","831459","840920","NA","837744","230516","832567","831485","831429","NA","833717","336607","831482","230509","experiment-visual-word-paradigm","839798.0","washed","1398","wolf.mp4","1920"
"12_egg.ogg","white","legacy","True","C:\Users\yarbus\Desktop\Team Cat\visual-word-paradigm\temp","legacy","legacy","static","C:\Users\yarbus\Desktop\Team Cat\visual-word-paradigm\config.yml","0","0","39","0","39","0","0","39","39","0","39","0","39","39","39","0","39","0","39","0","38.0821792338622","50","Wed Jul 10 16:27:34 2024","20","The main experiment item","False","3763.9999389648438","336606","pygame-experiment-visual-world-paradigm.osexp","C:\Users\yarbus\Desktop\Team Cat\visual-word-paradigm","black","0","0","medium-open","1000","False","mono","False","32","no","black","no","yes","1080","12","Look at the screen and listen carefully. press any key to continue","True","mono","black","32","None","None","w","legacy","1","wolf","39","39","farm","C:/Users/yarbus/Desktop/Team Cat/visual-word-paradigm/trials/subject-7.csv","2000","legacy","Melodramatic Milgram","4.0.13","False","mono","black","32","None","380","Pause. Look at the fixation dot in order to continue.","30000","-480","480","-480","480","270","270","-270","-270","1000","0","2","legacy","At the farm, the girl picked the egg. ","500","1024","2","3.2639999389648438","48000","-16","C:\Users\yarbus\AppData\Local\Temp\tmpblawj5r9.opensesame_pool\12_egg.ogg","battery","videogame","egg","oven","battery","videogame","egg","oven","experiment","egg","7","odd","2263","TL","847079.0","C:\Users\yarbus\Desktop\Team Cat\visual-word-paradigm\temp","234550","316214","841104","230506","841104","230539","316214","841038","849160","NA","847037","230516","842151","841079","840923","NA","843199","336607","841064","230509","experiment-visual-word-paradigm","849079.0","picked","1380","wolf.mp4","1920"
"11_chicken.ogg","white","legacy","True","C:\Users\yarbus\Desktop\Team Cat\visual-word-paradigm\temp","legacy","legacy","static","C:\Users\yarbus\Desktop\Team Cat\visual-word-paradigm\config.yml","0","0","40","0","40","0","0","40","40","0","40","0","40","40","40","0","40","0","40","0","14.056186976559495","50","Wed Jul 10 16:27:34 2024","20","The main experiment item","False","3548.0000972747803","336606","pygame-experiment-visual-world-paradigm.osexp","C:\Users\yarbus\Desktop\Team Cat\visual-word-paradigm","black","0","0","medium-open","1000","False","mono","False","32","no","black","no","yes","1080"," ","Look at the screen and listen carefully. press any key to continue","True","mono","black","32","None","None","w","legacy","1","wolf","40","40","farm","C:/Users/yarbus/Desktop/Team Cat/visual-word-paradigm/trials/subject-7.csv","2000","legacy","Melodramatic Milgram","4.0.13","False","mono","black","32","None","380","Pause. Look at the fixation dot in order to continue.","30000","-480","480","-480","480","270","270","-270","-270","1000","0","2","legacy","At the farm, the girl fed the chicken. ","500","1024","2","3.0480000972747803","48000","-16","C:\Users\yarbus\AppData\Local\Temp\tmpblawj5r9.opensesame_pool\11_chicken.ogg","shoppingcart","battery","chicken","basketball","shoppingcart","battery","chicken","basketball","experiment","chicken","7","odd","2193","TL","855008.0","C:\Users\yarbus\Desktop\Team Cat\visual-word-paradigm\temp","234550","316214","849255","230506","849255","230539","316214","849192","870170","NA","854962","230516","850296","849217","849163","NA","851351","336607","849215","230509","experiment-visual-word-paradigm","857008.0","fed","1607","wolf.mp4","1920"
"22_dog.ogg","white","legacy","True","C:\Users\yarbus\Desktop\Team Cat\visual-word-paradigm\temp","legacy","legacy","static","C:\Users\yarbus\Desktop\Team Cat\visual-word-paradigm\config.yml","0","0","41","0","41","0","0","41","41","0","41","0","41","41","41","0","41","0","41","0","31.776725271179295","50","Wed Jul 10 16:27:34 2024","20","The main experiment item","False","3523.9999294281006","336606","pygame-experiment-visual-world-paradigm.osexp","C:\Users\yarbus\Desktop\Team Cat\visual-word-paradigm","black","0","0","medium-open","1000","False","mono","False","32","no","black","no","yes","1080","22","Look at the screen and listen carefully. press any key to continue","True","mono","black","32","None","None","w","legacy","1","wolf","41","41","park","C:/Users/yarbus/Desktop/Team Cat/visual-word-paradigm/trials/subject-7.csv","2000","legacy","Melodramatic Milgram","4.0.13","False","mono","black","32","None","380","Pause. Look at the fixation dot in order to continue.","30000","-480","480","-480","480","270","270","-270","-270","1000","0","2","legacy","At the park, the girl walked a dog. ","500","1024","2","3.0239999294281006","48000","-16","C:\Users\yarbus\AppData\Local\Temp\tmpblawj5r9.opensesame_pool\22_dog.ogg","calculator","mitten","button","dog","calculator","mitten","button","dog","experiment","dog","7","odd","2241","TR","876019.0","C:\Users\yarbus\Desktop\Team Cat\visual-word-paradigm\temp","234550","316214","870279","230506","870279","230539","316214","870206","886444","NA","875966","230516","871323","870244","870171","NA","872387","336607","870229","230509","experiment-visual-word-paradigm","878019.0","walked","1379","wolf.mp4","1920"
"33_movie.ogg","white","legacy","True","C:\Users\yarbus\Desktop\Team Cat\visual-word-paradigm\temp","legacy","legacy","motion","C:\Users\yarbus\Desktop\Team Cat\visual-word-paradigm\config.yml","0","0","42","0","42","0","0","42","42","0","42","0","42","42","42","0","42","0","42","0","14.94554908994651","50","Wed Jul 10 16:27:34 2024","20","The main experiment item","False","4220.0000286102295","336606","pygame-experiment-visual-world-paradigm.osexp","C:\Users\yarbus\Desktop\Team Cat\visual-word-paradigm","black","0","0","medium-open","1000","False","mono","False","32","no","black","no","yes","1080","33","Look at the screen and listen carefully. press any key to continue","True","mono","black","32","None","None","w","legacy","1","wolf","42","42","cinema","C:/Users/yarbus/Desktop/Team Cat/visual-word-paradigm/trials/subject-7.csv","2000","legacy","Melodramatic Milgram","4.0.13","False","mono","black","32","None","380","Pause. Look at the fixation dot in order to continue.","30000","-480","480","-480","480","270","270","-270","-270","1000","0","2","legacy","At the cinema, the girl watched a movie.","500","1024","2","3.7200000286102295","48000","-16","C:\Users\yarbus\AppData\Local\Temp\tmpblawj5r9.opensesame_pool\33_movie.ogg","movie","button","pants","battleship","movie","button","pants","battleship","experiment","movie","7","odd","2212","BL","907031.0","C:\Users\yarbus\Desktop\Team Cat\visual-word-paradigm\temp","234550","316214","895520","230506","895521","230539","316214","886482","913495","NA","906981","230516","901596","886517","886447","NA","902695","336607","886507","230509","experiment-visual-word-paradigm","909031.0","watched","1562","wolf.mp4","1920"
"53_darts.ogg","white","legacy","True","C:\Users\yarbus\Desktop\Team Cat\visual-word-paradigm\temp","legacy","legacy","motion","C:\Users\yarbus\Desktop\Team Cat\visual-word-paradigm\config.yml","0","0","43","0","43","0","0","43","43","0","43","0","43","43","43","0","43","0","43","0","39.137536682831744","50","Wed Jul 10 16:27:34 2024","20","The main experiment item","False","3907.9999923706055","336606","pygame-experiment-visual-world-paradigm.osexp","C:\Users\yarbus\Desktop\Team Cat\visual-word-paradigm","black","0","0","medium-open","1000","False","mono","False","32","no","black","no","yes","1080","53","Look at the screen and listen carefully. press any key to continue","True","mono","black","32","None","None","w","legacy","1","wolf","43","43","bar","C:/Users/yarbus/Desktop/Team Cat/visual-word-paradigm/trials/subject-7.csv","2000","legacy","Melodramatic Milgram","4.0.13","False","mono","black","32","None","380","Pause. Look at the fixation dot in order to continue.","30000","-480","480","-480","480","270","270","-270","-270","1000","0","2","legacy","In the bar, the girl played darts. ","500","1024","2","3.4079999923706055","48000","-16","C:\Users\yarbus\AppData\Local\Temp\tmpblawj5r9.opensesame_pool\53_darts.ogg","dog","dart","popcorn","shoppingcart","dog","dart","popcorn","shoppingcart","experiment","dart","7","odd","2809","BR","942807.0","C:\Users\yarbus\Desktop\Team Cat\visual-word-paradigm\temp","234550","316214","922562","230506","922562","230539","316214","913528","952352","NA","942759","230516","932571","913560","913496","NA","938768","336607","913551","230509","experiment-visual-word-paradigm","944807.0","played","1930","wolf.mp4","1920"
"59_documents.ogg","white","legacy","True","C:\Users\yarbus\Desktop\Team Cat\visual-word-paradigm\temp","legacy","legacy","motion","C:\Users\yarbus\Desktop\Team Cat\visual-word-paradigm\config.yml","0","0","44","0","44","0","0","44","44","0","44","0","44","44","44","0","44","0","44","0","49.53236255540411","50","Wed Jul 10 16:27:34 2024","20","The main experiment item","False","4243.99995803833","336606","pygame-experiment-visual-world-paradigm.osexp","C:\Users\yarbus\Desktop\Team Cat\visual-word-paradigm","black","0","0","medium-open","1000","False","mono","False","32","no","black","no","yes","1080","59","Look at the screen and listen carefully. press any key to continue","True","mono","black","32","None","None","w","legacy","1","wolf","44","44","office","C:/Users/yarbus/Desktop/Team Cat/visual-word-paradigm/trials/subject-7.csv","2000","legacy","Melodramatic Milgram","4.0.13","False","mono","black","32","None","380","Pause. Look at the fixation dot in order to continue.","30000","-480","480","-480","480","270","270","-270","-270","1000","0","2","legacy","In the office, the girl printed documents. ","500","1024","2","3.74399995803833","48000","-16","C:\Users\yarbus\AppData\Local\Temp\tmpblawj5r9.opensesame_pool\59_documents.ogg","brainmodel","documents","weights","fishing","brainmodel","documents","weights","fishing","experiment","documents","7","odd","2487","BR","958989.0","C:\Users\yarbus\Desktop\Team Cat\visual-word-paradigm\temp","234550","316214","952480","230506","952480","230539","316214","952407","967178","NA","958932","230516","953528","952443","952365","NA","954607","336607","952430","230509","experiment-visual-word-paradigm","960989.0","printed","1575","wolf.mp4","1920"
"34_popcorn.ogg","white","legacy","True","C:\Users\yarbus\Desktop\Team Cat\visual-word-paradigm\temp","legacy","legacy","motion","C:\Users\yarbus\Desktop\Team Cat\visual-word-paradigm\config.yml","0","0","45","0","45","0","0","45","45","0","45","0","45","45","45","0","45","0","45","0","44.87405126350866","50","Wed Jul 10 16:27:34 2024","20","The main experiment item","False","4003.999948501587","336606","pygame-experiment-visual-world-paradigm.osexp","C:\Users\yarbus\Desktop\Team Cat\visual-word-paradigm","black","0","0","medium-open","1000","False","mono","False","32","no","black","no","yes","1080","34","Look at the screen and listen carefully. press any key to continue","True","mono","black","32","None","None","w","legacy","1","wolf","45","45","cinema","C:/Users/yarbus/Desktop/Team Cat/visual-word-paradigm/trials/subject-7.csv","2000","legacy","Melodramatic Milgram","4.0.13","False","mono","black","32","None","380","Pause. Look at the fixation dot in order to continue.","30000","-480","480","-480","480","270","270","-270","-270","1000","0","2","legacy","At the cinema, the girl ate popcorn.","500","1024","2","3.503999948501587","48000","-16","C:\Users\yarbus\AppData\Local\Temp\tmpblawj5r9.opensesame_pool\34_popcorn.ogg","popcorn","dice","fishing","keyboard","popcorn","dice","fishing","keyboard","experiment","popcorn","7","odd","2182","BL","973516.0","C:\Users\yarbus\Desktop\Team Cat\visual-word-paradigm\temp","234550","316214","967269","230506","967269","230539","316214","967211","978689","NA","973454","230516","968300","967243","967181","NA","969362","336607","967234","230509","experiment-visual-word-paradigm","975516.0","ate","1685","wolf.mp4","1920"
"54_cd.ogg","white","legacy","True","C:\Users\yarbus\Desktop\Team Cat\visual-word-paradigm\temp","legacy","legacy","motion","C:\Users\yarbus\Desktop\Team Cat\visual-word-paradigm\config.yml","0","0","46","0","46","0","0","46","46","0","46","0","46","46","46","0","46","0","46","0","17.436814502654965","50","Wed Jul 10 16:27:34 2024","20","The main experiment item","False","4099.999904632568","336606","pygame-experiment-visual-world-paradigm.osexp","C:\Users\yarbus\Desktop\Team Cat\visual-word-paradigm","black","0","0","medium-open","1000","False","mono","False","32","no","black","no","yes","1080","54","Look at the screen and listen carefully. press any key to continue","True","mono","black","32","None","None","w","legacy","1","wolf","46","46","car","C:/Users/yarbus/Desktop/Team Cat/visual-word-paradigm/trials/subject-7.csv","2000","legacy","Melodramatic Milgram","4.0.13","False","mono","black","32","None","380","Pause. Look at the fixation dot in order to continue.","30000","-480","480","-480","480","270","270","-270","-270","1000","0","2","legacy","In the car, the girl listened to a CD.","500","1024","2","3.5999999046325684","48000","-16","C:\Users\yarbus\AppData\Local\Temp\tmpblawj5r9.opensesame_pool\54_cd.ogg","moon","cd","ceilingfan","brick","moon","cd","ceilingfan","brick","experiment","cd","7","odd","2643","BR","985203.0","C:\Users\yarbus\Desktop\Team Cat\visual-word-paradigm\temp","234550","316214","978790","230506","978790","230539","316214","978731","996850","NA","985139","230516","979832","978756","978702","NA","980964","336607","978754","230509","experiment-visual-word-paradigm","987203.0","listened","1529","wolf.mp4","1920"
"36_marathon.ogg","white","legacy","True","C:\Users\yarbus\Desktop\Team Cat\visual-word-paradigm\temp","legacy","legacy","motion","C:\Users\yarbus\Desktop\Team Cat\visual-word-paradigm\config.yml","0","0","47","0","47","0","0","47","47","0","47","0","47","47","47","0","47","0","47","0","32.53738162790606","50","Wed Jul 10 16:27:34 2024","20","The main experiment item","False","3835.9999656677246","336606","pygame-experiment-visual-world-paradigm.osexp","C:\Users\yarbus\Desktop\Team Cat\visual-word-paradigm","black","0","0","medium-open","1000","False","mono","False","32","no","black","no","yes","1080","36","Look at the screen and listen carefully. press any key to continue","True","mono","black","32","None","None","w","legacy","1","wolf","47","47","stadium","C:/Users/yarbus/Desktop/Team Cat/visual-word-paradigm/trials/subject-7.csv","2000","legacy","Melodramatic Milgram","4.0.13","False","mono","black","32","None","380","Pause. Look at the fixation dot in order to continue.","30000","-480","480","-480","480","270","270","-270","-270","1000","0","2","legacy","At the stadium, the girl ran a marathon.","500","1024","2","3.3359999656677246","48000","-16","C:\Users\yarbus\AppData\Local\Temp\tmpblawj5r9.opensesame_pool\36_marathon.ogg","marathon","dishes","mouse","bust","marathon","dishes","mouse","bust","experiment","marathon","7","odd","2382","BL","1003076.0","C:\Users\yarbus\Desktop\Team Cat\visual-word-paradigm\temp","234550","316214","996971","230506","996971","230539","316214","996906","1005096","NA","1003036","230516","998016","996943","996858","NA","999070","336607","996933","230509","experiment-visual-word-paradigm","1005076.0","ran","1389","wolf.mp4","1920"
"20_seashells.ogg","white","legacy","True","C:\Users\yarbus\Desktop\Team Cat\visual-word-paradigm\temp","legacy","legacy","static","C:\Users\yarbus\Desktop\Team Cat\visual-word-paradigm\config.yml","0","0","48","0","48","0","0","48","48","0","48","0","48","48","48","0","48","0","48","0","47.01293986978477","50","Wed Jul 10 16:27:34 2024","20","The main experiment item","False","3980.0000190734863","336606","pygame-experiment-visual-world-paradigm.osexp","C:\Users\yarbus\Desktop\Team Cat\visual-word-paradigm","black","0","0","medium-open","1000","False","mono","False","32","no","black","no","yes","1080","20","Look at the screen and listen carefully. press any key to continue","True","mono","black","32","None","None","w","legacy","1","wolf","48","48","beach","C:/Users/yarbus/Desktop/Team Cat/visual-word-paradigm/trials/subject-7.csv","2000","legacy","Melodramatic Milgram","4.0.13","False","mono","black","32","None","380","Pause. Look at the fixation dot in order to continue.","30000","-480","480","-480","480","270","270","-270","-270","1000","0","2","legacy","At the beach, the girl collected seashells.","500","1024","2","3.4800000190734863","48000","-16","C:\Users\yarbus\AppData\Local\Temp\tmpblawj5r9.opensesame_pool\20_seashells.ogg","documents","basketballhoop","apple","seashells","documents","basketballhoop","apple","seashells","experiment","seashells","7","odd","2070","TR","1011377.0","C:\Users\yarbus\Desktop\Team Cat\visual-word-paradigm\temp","234550","316214","1005206","230506","1005206","230539","316214","1005139","1013734","NA","1011333","230516","1006247","1005172","1005100","NA","1007301","336607","1005162","230509","experiment-visual-word-paradigm","1013377.0","built","1300","wolf.mp4","1920"
"02_horse.ogg","white","legacy","True","C:\Users\yarbus\Desktop\Team Cat\visual-word-paradigm\temp","legacy","legacy","static","C:\Users\yarbus\Desktop\Team Cat\visual-word-paradigm\config.yml","0","0","49","0","49","0","0","49","49","0","49","0","49","49","49","0","49","0","49","0","12.584571124992657","50","Wed Jul 10 16:27:34 2024","20","The main experiment item","False","3931.999921798706","336606","pygame-experiment-visual-world-paradigm.osexp","C:\Users\yarbus\Desktop\Team Cat\visual-word-paradigm","black","0","0","medium-open","1000","False","mono","False","32","no","black","no","yes","1080","2","Look at the screen and listen carefully. press any key to continue","True","mono","black","32","None","None","w","legacy","1","wolf","49","49","countryside","C:/Users/yarbus/Desktop/Team Cat/visual-word-paradigm/trials/subject-7.csv","2000","legacy","Melodramatic Milgram","4.0.13","False","mono","black","32","None","380","Pause. Look at the fixation dot in order to continue.","30000","-480","480","-480","480","270","270","-270","-270","1000","0","2","legacy","In the countryside, the girl rode a horse.","500","1024","2","3.431999921798706","48000","-16","C:\Users\yarbus\AppData\Local\Temp\tmpblawj5r9.opensesame_pool\02_horse.ogg","paperclip","oven","horse","novel","paperclip","oven","horse","novel","experiment","horse","7","odd","2600","TL","1019991.0","C:\Users\yarbus\Desktop\Team Cat\visual-word-paradigm\temp","234550","316214","1013856","230506","1013856","230539","316214","1013782","1027324","NA","1019937","230516","1014907","1013821","1013748","NA","1015953","336607","1013806","230509","experiment-visual-word-paradigm","1021991.0","rode","1655","wolf.mp4","1920"
"09_cello.ogg","white","legacy","True","C:\Users\yarbus\Desktop\Team Cat\visual-word-paradigm\temp","legacy","legacy","static","C:\Users\yarbus\Desktop\Team Cat\visual-word-paradigm\config.yml","0","0","50","0","50","0","0","50","50","0","50","0","50","50","50","0","50","0","50","0","24.436491335705284","50","Wed Jul 10 16:27:34 2024","20","The main experiment item","False","4052.000045776367","336606","pygame-experiment-visual-world-paradigm.osexp","C:\Users\yarbus\Desktop\Team Cat\visual-word-paradigm","black","0","0","medium-open","1000","False","mono","False","32","no","black","no","yes","1080","9","Look at the screen and listen carefully. press any key to continue","True","mono","black","32","None","None","w","legacy","1","wolf","50","50","musical class","C:/Users/yarbus/Desktop/Team Cat/visual-word-paradigm/trials/subject-7.csv","2000","legacy","Melodramatic Milgram","4.0.13","False","mono","black","32","None","380","Pause. Look at the fixation dot in order to continue.","30000","-480","480","-480","480","270","270","-270","-270","1000","0","2","legacy","During musical class, the girl played the cello. ","500","1024","2","3.552000045776367","48000","-16","C:\Users\yarbus\AppData\Local\Temp\tmpblawj5r9.opensesame_pool\09_cello.ogg","soccer","brick","cello","pencilsharpener","soccer","brick","cello","pencilsharpener","experiment","cello","7","odd","2260","TL","1033680.0","C:\Users\yarbus\Desktop\Team Cat\visual-word-paradigm\temp","234550","316214","1027436","230506","1027437","230539","316214","1027362","1035891","NA","1033639","230516","1028482","1027401","1027337","NA","1029532","336607","1027388","230509","experiment-visual-word-paradigm","1035680.0","played","1856","wolf.mp4","1920"
"15_keyboard.ogg","white","legacy","True","C:\Users\yarbus\Desktop\Team Cat\visual-word-paradigm\temp","legacy","legacy","static","C:\Users\yarbus\Desktop\Team Cat\visual-word-paradigm\config.yml","0","0","51","0","51","0","0","51","51","0","51","0","51","51","51","0","51","0","51","0","48.7646881355761","50","Wed Jul 10 16:27:34 2024","20","The main experiment item","False","4196.000099182129","336606","pygame-experiment-visual-world-paradigm.osexp","C:\Users\yarbus\Desktop\Team Cat\visual-word-paradigm","black","0","0","medium-open","1000","False","mono","False","32","no","black","no","yes","1080","15","Look at the screen and listen carefully. press any key to continue","True","mono","black","32","None","None","w","legacy","1","wolf","51","51","desk","C:/Users/yarbus/Desktop/Team Cat/visual-word-paradigm/trials/subject-7.csv","2000","legacy","Melodramatic Milgram","4.0.13","False","mono","black","32","None","380","Pause. Look at the fixation dot in order to continue.","30000","-480","480","-480","480","270","270","-270","-270","1000","0","2","legacy","At her desk, the girl typed on the keyboard.","500","1024","2","3.696000099182129","48000","-16","C:\Users\yarbus\AppData\Local\Temp\tmpblawj5r9.opensesame_pool\15_keyboard.ogg","paintcan","sofa","keyboard","bowl","paintcan","sofa","keyboard","bowl","experiment","keyboard","7","odd","2111","TL","1042380.0","C:\Users\yarbus\Desktop\Team Cat\visual-word-paradigm\temp","234550","316214","1035982","230506","1035982","230539","316214","1035925","1057020","NA","1042329","230516","1037012","1035957","1035894","NA","1038074","336607","1035948","230509","experiment-visual-word-paradigm","1044380.0","typed","1500","wolf.mp4","1920"
"37_vegetables.ogg","white","legacy","True","C:\Users\yarbus\Desktop\Team Cat\visual-word-paradigm\temp","legacy","legacy","motion","C:\Users\yarbus\Desktop\Team Cat\visual-word-paradigm\config.yml","0","0","52","0","52","0","0","52","52","0","52","0","52","52","52","0","52","0","52","0","47.87271000141937","50","Wed Jul 10 16:27:34 2024","20","The main experiment item","False","4003.999948501587","336606","pygame-experiment-visual-world-paradigm.osexp","C:\Users\yarbus\Desktop\Team Cat\visual-word-paradigm","black","0","0","medium-open","1000","False","mono","False","32","no","black","no","yes","1080","37","Look at the screen and listen carefully. press any key to continue","True","mono","black","32","None","None","w","legacy","1","wolf","52","52","market","C:/Users/yarbus/Desktop/Team Cat/visual-word-paradigm/trials/subject-7.csv","2000","legacy","Melodramatic Milgram","4.0.13","False","mono","black","32","None","380","Pause. Look at the fixation dot in order to continue.","30000","-480","480","-480","480","270","270","-270","-270","1000","0","2","legacy","At the market, the girl bought fresh vegetables.","500","1024","2","3.503999948501587","48000","-16","C:\Users\yarbus\AppData\Local\Temp\tmpblawj5r9.opensesame_pool\37_vegetables.ogg","vegetables","pacifier","duck","bicycle","vegetables","pacifier","duck","bicycle","experiment","vegetables","7","odd","2344","BL","1063403.0","C:\Users\yarbus\Desktop\Team Cat\visual-word-paradigm\temp","234550","316214","1057120","230506","1057120","230539","316214","1057055","1065994","NA","1063354","230516","1058162","1057089","1057032","NA","1059250","336607","1057078","230509","experiment-visual-word-paradigm","1065403.0","bought","1606","wolf.mp4","1920"
"29_ferriswheel.ogg","white","legacy","True","C:\Users\yarbus\Desktop\Team Cat\visual-word-paradigm\temp","legacy","legacy","static","C:\Users\yarbus\Desktop\Team Cat\visual-word-paradigm\config.yml","0","0","53","0","53","0","0","53","53","0","53","0","53","53","53","0","53","0","53","0","38.97094969743491","50","Wed Jul 10 16:27:34 2024","20","The main experiment item","False","4843.999862670898","336606","pygame-experiment-visual-world-paradigm.osexp","C:\Users\yarbus\Desktop\Team Cat\visual-word-paradigm","black","0","0","medium-open","1000","False","mono","False","32","no","black","no","yes","1080","29","Look at the screen and listen carefully. press any key to continue","True","mono","black","32","None","None","w","legacy","1","wolf","53","53","carnival","C:/Users/yarbus/Desktop/Team Cat/visual-word-paradigm/trials/subject-7.csv","2000","legacy","Melodramatic Milgram","4.0.13","False","mono","black","32","None","380","Pause. Look at the fixation dot in order to continue.","30000","-480","480","-480","480","270","270","-270","-270","1000","0","2","legacy","At the carnival, the girl rode on a Ferris wheel.","500","1024","2","4.343999862670898","48000","-16","C:\Users\yarbus\AppData\Local\Temp\tmpblawj5r9.opensesame_pool\29_ferriswheel.ogg","vegetables","button","paperclip","ferriswheel","vegetables","button","paperclip","ferriswheel","experiment","ferriswheel","7","odd","3120","TR","1081178.0","C:\Users\yarbus\Desktop\Team Cat\visual-word-paradigm\temp","234550","316214","1074138","230506","1074138","230539","316214","1066028","1086505","NA","1081137","230516","1075179","1066067","1066006","NA","1076233","336607","1066060","230509","experiment-visual-word-paradigm","1083178.0","rode","1662","wolf.mp4","1920"
"21_kite.ogg","white","legacy","False","C:\Users\yarbus\Desktop\Team Cat\visual-word-paradigm\temp","legacy","legacy","static","C:\Users\yarbus\Desktop\Team Cat\visual-word-paradigm\config.yml","0","0","54","0","54","0","0","54","54","0","54","0","54","54","54","0","54","0","54","0","245.97658223757801","50","Wed Jul 10 16:27:34 2024","20","The main experiment item","False","3884.000062942505","336606","pygame-experiment-visual-world-paradigm.osexp","C:\Users\yarbus\Desktop\Team Cat\visual-word-paradigm","black","0","0","medium-open","1000","False","mono","False","32","no","black","no","yes","1080","21","Look at the screen and listen carefully. press any key to continue","True","mono","black","32","None","None","w","legacy","1","wolf","54","54","park","C:/Users/yarbus/Desktop/Team Cat/visual-word-paradigm/trials/subject-7.csv","2000","legacy","Melodramatic Milgram","4.0.13","False","mono","black","32","None","380","Pause. Look at the fixation dot in order to continue.","30000","-480","480","-480","480","270","270","-270","-270","1000","0","2","legacy","At the park, the girl flew a kite.","500","1024","2","3.384000062942505","48000","-16","C:\Users\yarbus\AppData\Local\Temp\tmpblawj5r9.opensesame_pool\21_kite.ogg","cake","pool","blood","kite","cake","pool","blood","kite","experiment","kite","7","odd","2440","TR","1092713.0","C:\Users\yarbus\Desktop\Team Cat\visual-word-paradigm\temp","234550","316214","1086595","230506","1086595","230539","316214","1086536","1122736","NA","1092650","230516","1087636","1086568","1086506","NA","1088704","336607","1086559","230509","experiment-visual-word-paradigm","1094713.0","flew","1354","wolf.mp4","1920"
"62_mathproblems.ogg","white","legacy","True","C:\Users\yarbus\Desktop\Team Cat\visual-word-paradigm\temp","legacy","legacy","motion","C:\Users\yarbus\Desktop\Team Cat\visual-word-paradigm\config.yml","0","0","55","0","55","0","0","55","55","0","55","0","55","55","55","0","55","0","55","0","43.78097873003749","50","Wed Jul 10 16:27:34 2024","20","The main experiment item","False","4196.000099182129","336606","pygame-experiment-visual-world-paradigm.osexp","C:\Users\yarbus\Desktop\Team Cat\visual-word-paradigm","black","0","0","medium-open","1000","False","mono","False","32","no","black","no","yes","1080","62","Look at the screen and listen carefully. press any key to continue","True","mono","black","32","None","None","w","legacy","1","wolf","55","55","classroom","C:/Users/yarbus/Desktop/Team Cat/visual-word-paradigm/trials/subject-7.csv","2000","legacy","Melodramatic Milgram","4.0.13","False","mono","black","32","None","380","Pause. Look at the fixation dot in order to continue.","30000","-480","480","-480","480","270","270","-270","-270","1000","0","2","legacy","In the classroom, the girl solved math problems.","500","1024","2","3.696000099182129","48000","-16","C:\Users\yarbus\AppData\Local\Temp\tmpblawj5r9.opensesame_pool\62_mathproblems.ogg","kite","math","bear","cookie","kite","math","bear","cookie","experiment","math","7","odd","2397","BR","1129373.0","C:\Users\yarbus\Desktop\Team Cat\visual-word-paradigm\temp","234550","316214","1122848","230506","1122848","230539","316214","1122784","1150067","NA","1129310","230516","1123887","1122815","1122743","NA","1124955","336607","1122807","230509","experiment-visual-word-paradigm","1131373.0","solved","1801","wolf.mp4","1920"
"28_rollercoaster.ogg","white","legacy","True","C:\Users\yarbus\Desktop\Team Cat\visual-word-paradigm\temp","legacy","legacy","static","C:\Users\yarbus\Desktop\Team Cat\visual-word-paradigm\config.yml","0","0","56","0","56","0","0","56","56","0","56","0","56","56","56","0","56","0","56","0","49.14738827974488","50","Wed Jul 10 16:27:34 2024","20","The main experiment item","False","4292.00005531311","336606","pygame-experiment-visual-world-paradigm.osexp","C:\Users\yarbus\Desktop\Team Cat\visual-word-paradigm","black","0","0","medium-open","1000","False","mono","False","32","no","black","no","yes","1080","28","Look at the screen and listen carefully. press any key to continue","True","mono","black","32","None","None","w","legacy","1","wolf","56","56","carnival","C:/Users/yarbus/Desktop/Team Cat/visual-word-paradigm/trials/subject-7.csv","2000","legacy","Melodramatic Milgram","4.0.13","False","mono","black","32","None","380","Pause. Look at the fixation dot in order to continue.","30000","-480","480","-480","480","270","270","-270","-270","1000","0","2","legacy","At the carnival, the girl rode a roller coaster.","500","1024","2","3.7920000553131104","48000","-16","C:\Users\yarbus\AppData\Local\Temp\tmpblawj5r9.opensesame_pool\28_rollercoaster.ogg","picnic","bust","videogame","rollercoaster","picnic","bust","videogame","rollercoaster","experiment","rollercoaster","7","odd","2229","TR","1156667.0","C:\Users\yarbus\Desktop\Team Cat\visual-word-paradigm\temp","234550","316214","1150176","230506","1150176","230539","316214","1150101","1160556","NA","1156618","230516","1151222","1150139","1150070","NA","1152279","336607","1150126","230509","experiment-visual-word-paradigm","1158667.0","rode","1651","wolf.mp4","1920"
