"audio","background","canvas_backend","central_fixation","cfg_temp_dir","clock_backend","color_backend","condition","config_path","count_calibration_pygaze_init","count_check_group_selection","count_define_logging","count_experiment","count_fixation","count_instruction_screen","count_latin_square_group_select","count_logsleep","count_new_logger","count_outro_screen","count_pause","count_preprocess_videos","count_preview","count_pygaze_start_recording","count_pygaze_stop_recording","count_readme","count_sentence","count_trial_loop","count_trial_sequence","count_utils","d","d_to_continue","datetime","delay_logsleep","description","disable_garbage_collection","duration","end_time","experiment_file","experiment_path","fixdot_color","fixdot_posx","fixdot_posy","fixdot_style","fixtime","font_bold","font_family","font_italic","font_size","font_underline","foreground","form_clicks","fullscreen","height","index","inst","inst_cnt","inst_font","inst_font_col","inst_font_size","inst_posx","inst_posy","key","keyboard_backend","latin_group","latin_group_name","live_row","live_row_trial_loop","location_cue","logfile","minpause","mouse_backend","opensesame_codename","opensesame_version","pause_cntr","pause_font","pause_font_col","pause_font_size","pause_posx","pause_posy","pause_text","pausetimeout","posx_sstimBL","posx_sstimBR","posx_sstimTL","posx_sstimTR","posy_sstimBL","posy_sstimBR","posy_sstimTL","posy_sstimTR","prevtime","repeat_cycle","round_decimals","sampler_backend","sentence","sentenceoffset","sound_buf_size","sound_channels","sound_duration_ms","sound_freq","sound_sample_size","src","sstimBL","sstimBR","sstimTL","sstimTR","sstim_bl","sstim_br","sstim_tl","sstim_tr","start","stimulus_name","subject_nr","subject_parity","target_cue_timing","target_pos","tcur","temp_dir","time_calibration_pygaze_init","time_check_group_selection","time_define_logging","time_experiment","time_fixation","time_instruction_screen","time_latin_square_group_select","time_logsleep","time_new_logger","time_outro_screen","time_pause","time_preprocess_videos","time_preview","time_pygaze_start_recording","time_pygaze_stop_recording","time_readme","time_sentence","time_trial_loop","time_trial_sequence","time_utils","title","tmin","verb_cue","verb_cue_timing","video_file","width"
"02_horse.ogg","white","legacy","True","C:\Users\yarbus\Desktop\Team Cat\visual-word-paradigm\temp","legacy","legacy","motion","C:\Users\yarbus\Desktop\Team Cat\visual-word-paradigm\config.yml","0","0","0","0","0","0","0","0","0","0","0","0","0","0","0","0","0","0","0","0","37.68528851422006","50","Sat Jul 13 15:06:23 2024","20","The main experiment item","False","3931.999921798706","125910","pygame-experiment-visual-world-paradigm.osexp","C:\Users\yarbus\Desktop\Team Cat\visual-word-paradigm","black","0","0","medium-open","1000","False","mono","False","32","no","black","no","yes","1080","2","Look at the screen and listen carefully. press any key to continue","True","mono","black","32","None","None","c","legacy","-1","chicken","0","0","countryside","C:/Users/yarbus/Desktop/Team Cat/visual-word-paradigm/trials/subject-10.csv","2000","legacy","Melodramatic Milgram","4.0.13","False","mono","black","32","None","380","Pause. Look at the fixation dot in order to continue.","30000","-480","480","-480","480","270","270","-270","-270","1000","0","2","legacy","In the countryside, the girl rode a horse.","500","1024","2","3.431999921798706","48000","-16","C:\Users\yarbus\AppData\Local\Temp\tmp4v2df3pk.opensesame_pool\02_horse.ogg","paperclip","oven","horse","novel","paperclip","oven","horse","novel","experiment","horse","10","even","2600","TL","143762.0","C:\Users\yarbus\Desktop\Team Cat\visual-word-paradigm\temp","3286","123553","137559","460","137559","733","123553","NA","148506","NA","143709","684","138601","125924","NA","NA","139679","125911","125915","507","experiment-visual-word-paradigm","145762.0","rode","1655","wolf.mp4","1920"
"52_pool.ogg","white","legacy","True","C:\Users\yarbus\Desktop\Team Cat\visual-word-paradigm\temp","legacy","legacy","static","C:\Users\yarbus\Desktop\Team Cat\visual-word-paradigm\config.yml","0","0","1","0","1","0","0","1","1","0","1","0","1","1","1","0","1","0","1","0","42.25671657855111","50","Sat Jul 13 15:06:23 2024","20","The main experiment item","False","3548.0000972747803","125910","pygame-experiment-visual-world-paradigm.osexp","C:\Users\yarbus\Desktop\Team Cat\visual-word-paradigm","black","0","0","medium-open","1000","False","mono","False","32","no","black","no","yes","1080","52","Look at the screen and listen carefully. press any key to continue","True","mono","black","32","None","None","c","legacy","-1","chicken","1","1","bar","C:/Users/yarbus/Desktop/Team Cat/visual-word-paradigm/trials/subject-10.csv","2000","legacy","Melodramatic Milgram","4.0.13","False","mono","black","32","None","380","Pause. Look at the fixation dot in order to continue.","30000","-480","480","-480","480","270","270","-270","-270","1000","0","2","legacy","In the bar, the girl played pool.","500","1024","2","3.0480000972747803","48000","-16","C:\Users\yarbus\AppData\Local\Temp\tmp4v2df3pk.opensesame_pool\52_pool.ogg","paperairplane","pool","calculator","dance","paperairplane","pool","calculator","dance","experiment","pool","10","even","1993","BR","161859.0","C:\Users\yarbus\Desktop\Team Cat\visual-word-paradigm\temp","3286","123553","156101","460","156101","733","123553","149029","166173","NA","161817","684","157146","149053","148513","NA","158208","125911","149052","507","experiment-visual-word-paradigm","163859.0","played","1298","wolf.mp4","1920"
"04_banana.ogg","white","legacy","True","C:\Users\yarbus\Desktop\Team Cat\visual-word-paradigm\temp","legacy","legacy","motion","C:\Users\yarbus\Desktop\Team Cat\visual-word-paradigm\config.yml","0","0","2","0","2","0","0","2","2","0","2","0","2","2","2","0","2","0","2","0","49.649771673191026","50","Sat Jul 13 15:06:23 2024","20","The main experiment item","False","4003.999948501587","125910","pygame-experiment-visual-world-paradigm.osexp","C:\Users\yarbus\Desktop\Team Cat\visual-word-paradigm","black","0","0","medium-open","1000","False","mono","False","32","no","black","no","yes","1080","4","Look at the screen and listen carefully. press any key to continue","True","mono","black","32","None","None","c","legacy","-1","chicken","2","2","breakfast","C:/Users/yarbus/Desktop/Team Cat/visual-word-paradigm/trials/subject-10.csv","2000","legacy","Melodramatic Milgram","4.0.13","False","mono","black","32","None","380","Pause. Look at the fixation dot in order to continue.","30000","-480","480","-480","480","270","270","-270","-270","1000","0","2","legacy","At breakfast, the girl ate a banana.","500","1024","2","3.503999948501587","48000","-16","C:\Users\yarbus\AppData\Local\Temp\tmp4v2df3pk.opensesame_pool\04_banana.ogg","pants","videogame","banana","clothes","pants","videogame","banana","clothes","experiment","banana","10","even","2500","TL","172813.0","C:\Users\yarbus\Desktop\Team Cat\visual-word-paradigm\temp","3286","123553","166511","460","166511","733","123553","166440","182424","NA","172767","684","167541","166474","166177","NA","168632","125911","166464","507","experiment-visual-word-paradigm","174813.0","ate","1770","wolf.mp4","1920"
"62_mathproblems.ogg","white","legacy","True","C:\Users\yarbus\Desktop\Team Cat\visual-word-paradigm\temp","legacy","legacy","static","C:\Users\yarbus\Desktop\Team Cat\visual-word-paradigm\config.yml","0","0","3","0","3","0","0","3","3","0","3","0","3","3","3","0","3","0","3","0","47.7885141614593","50","Sat Jul 13 15:06:23 2024","20","The main experiment item","False","4196.000099182129","125910","pygame-experiment-visual-world-paradigm.osexp","C:\Users\yarbus\Desktop\Team Cat\visual-word-paradigm","black","0","0","medium-open","1000","False","mono","False","32","no","black","no","yes","1080","62","Look at the screen and listen carefully. press any key to continue","True","mono","black","32","None","None","c","legacy","-1","chicken","3","3","classroom","C:/Users/yarbus/Desktop/Team Cat/visual-word-paradigm/trials/subject-10.csv","2000","legacy","Melodramatic Milgram","4.0.13","False","mono","black","32","None","380","Pause. Look at the fixation dot in order to continue.","30000","-480","480","-480","480","270","270","-270","-270","1000","0","2","legacy","In the classroom, the girl solved math problems.","500","1024","2","3.696000099182129","48000","-16","C:\Users\yarbus\AppData\Local\Temp\tmp4v2df3pk.opensesame_pool\62_mathproblems.ogg","kite","math","bear","cookie","kite","math","bear","cookie","experiment","math","10","even","2397","BR","189873.0","C:\Users\yarbus\Desktop\Team Cat\visual-word-paradigm\temp","3286","123553","183446","460","183446","733","123553","183278","192427","NA","189824","684","184493","183316","182427","NA","185570","125911","183301","507","experiment-visual-word-paradigm","191873.0","solved","1801","wolf.mp4","1920"
"15_keyboard.ogg","white","legacy","False","C:\Users\yarbus\Desktop\Team Cat\visual-word-paradigm\temp","legacy","legacy","motion","C:\Users\yarbus\Desktop\Team Cat\visual-word-paradigm\config.yml","0","0","4","0","4","0","0","4","4","0","4","0","4","4","4","0","4","0","4","0","94.22345229591198","50","Sat Jul 13 15:06:23 2024","20","The main experiment item","False","4196.000099182129","125910","pygame-experiment-visual-world-paradigm.osexp","C:\Users\yarbus\Desktop\Team Cat\visual-word-paradigm","black","0","0","medium-open","1000","False","mono","False","32","no","black","no","yes","1080","15","Look at the screen and listen carefully. press any key to continue","True","mono","black","32","None","None","c","legacy","-1","chicken","4","4","desk","C:/Users/yarbus/Desktop/Team Cat/visual-word-paradigm/trials/subject-10.csv","2000","legacy","Melodramatic Milgram","4.0.13","False","mono","black","32","None","380","Pause. Look at the fixation dot in order to continue.","30000","-480","480","-480","480","270","270","-270","-270","1000","0","2","legacy","At her desk, the girl typed on the keyboard.","500","1024","2","3.696000099182129","48000","-16","C:\Users\yarbus\AppData\Local\Temp\tmp4v2df3pk.opensesame_pool\15_keyboard.ogg","paintcan","sofa","keyboard","bowl","paintcan","sofa","keyboard","bowl","experiment","keyboard","10","even","2111","TL","199232.0","C:\Users\yarbus\Desktop\Team Cat\visual-word-paradigm\temp","3286","123553","192732","460","192732","733","123553","192666","230846","NA","199186","684","193782","192699","192430","NA","194867","125911","192689","507","experiment-visual-word-paradigm","201232.0","typed","1500","wolf.mp4","1920"
"22_dog.ogg","white","legacy","True","C:\Users\yarbus\Desktop\Team Cat\visual-word-paradigm\temp","legacy","legacy","motion","C:\Users\yarbus\Desktop\Team Cat\visual-word-paradigm\config.yml","0","0","5","0","5","0","0","5","5","0","5","0","5","5","5","0","5","0","5","0","33.45289537244873","50","Sat Jul 13 15:06:23 2024","20","The main experiment item","False","3523.9999294281006","125910","pygame-experiment-visual-world-paradigm.osexp","C:\Users\yarbus\Desktop\Team Cat\visual-word-paradigm","black","0","0","medium-open","1000","False","mono","False","32","no","black","no","yes","1080","22","Look at the screen and listen carefully. press any key to continue","True","mono","black","32","None","None","c","legacy","-1","chicken","5","5","park","C:/Users/yarbus/Desktop/Team Cat/visual-word-paradigm/trials/subject-10.csv","2000","legacy","Melodramatic Milgram","4.0.13","False","mono","black","32","None","380","Pause. Look at the fixation dot in order to continue.","30000","-480","480","-480","480","270","270","-270","-270","1000","0","2","legacy","At the park, the girl walked a dog. ","500","1024","2","3.0239999294281006","48000","-16","C:\Users\yarbus\AppData\Local\Temp\tmp4v2df3pk.opensesame_pool\22_dog.ogg","calculator","mitten","button","dog","calculator","mitten","button","dog","experiment","dog","10","even","2241","TR","237007.0","C:\Users\yarbus\Desktop\Team Cat\visual-word-paradigm\temp","3286","123553","231174","460","231174","733","123553","231104","239007","NA","236966","684","232219","231136","230849","NA","233343","125911","231127","507","experiment-visual-word-paradigm","239007.0","walked","1379","wolf.mp4","1920"
"43_car.ogg","white","legacy","True","C:\Users\yarbus\Desktop\Team Cat\visual-word-paradigm\temp","legacy","legacy","static","C:\Users\yarbus\Desktop\Team Cat\visual-word-paradigm\config.yml","0","0","6","0","6","0","0","6","6","0","6","0","6","6","6","0","6","0","6","0","32.235103789502574","50","Sat Jul 13 15:06:23 2024","20","The main experiment item","False","3956.0000896453857","125910","pygame-experiment-visual-world-paradigm.osexp","C:\Users\yarbus\Desktop\Team Cat\visual-word-paradigm","black","0","0","medium-open","1000","False","mono","False","32","no","black","no","yes","1080","43","Look at the screen and listen carefully. press any key to continue","True","mono","black","32","None","None","c","legacy","-1","chicken","6","6","garage","C:/Users/yarbus/Desktop/Team Cat/visual-word-paradigm/trials/subject-10.csv","2000","legacy","Melodramatic Milgram","4.0.13","False","mono","black","32","None","380","Pause. Look at the fixation dot in order to continue.","30000","-480","480","-480","480","270","270","-270","-270","1000","0","2","legacy","In the garage, the girl washed her car.","500","1024","2","3.4560000896453857","48000","-16","C:\Users\yarbus\AppData\Local\Temp\tmp4v2df3pk.opensesame_pool\43_car.ogg","car","cd","brainmodel","bear","car","cd","brainmodel","bear","experiment","car","10","even","2227","BL","245392.0","C:\Users\yarbus\Desktop\Team Cat\visual-word-paradigm\temp","3286","123553","239226","460","239226","733","123553","239175","247392","NA","245335","684","240258","239198","239020","NA","241315","125911","239198","507","experiment-visual-word-paradigm","247392.0","washed","1398","wolf.mp4","1920"
"11_chicken.ogg","white","legacy","True","C:\Users\yarbus\Desktop\Team Cat\visual-word-paradigm\temp","legacy","legacy","motion","C:\Users\yarbus\Desktop\Team Cat\visual-word-paradigm\config.yml","0","0","7","0","7","0","0","7","7","0","7","0","7","7","7","0","7","0","7","0","49.99313995819831","50","Sat Jul 13 15:06:23 2024","20","The main experiment item","False","3548.0000972747803","125910","pygame-experiment-visual-world-paradigm.osexp","C:\Users\yarbus\Desktop\Team Cat\visual-word-paradigm","black","0","0","medium-open","1000","False","mono","False","32","no","black","no","yes","1080"," ","Look at the screen and listen carefully. press any key to continue","True","mono","black","32","None","None","c","legacy","-1","chicken","7","7","farm","C:/Users/yarbus/Desktop/Team Cat/visual-word-paradigm/trials/subject-10.csv","2000","legacy","Melodramatic Milgram","4.0.13","False","mono","black","32","None","380","Pause. Look at the fixation dot in order to continue.","30000","-480","480","-480","480","270","270","-270","-270","1000","0","2","legacy","At the farm, the girl fed the chicken. ","500","1024","2","3.0480000972747803","48000","-16","C:\Users\yarbus\AppData\Local\Temp\tmp4v2df3pk.opensesame_pool\11_chicken.ogg","shoppingcart","battery","chicken","basketball","shoppingcart","battery","chicken","basketball","experiment","chicken","10","even","2193","TL","253442.0","C:\Users\yarbus\Desktop\Team Cat\visual-word-paradigm\temp","3286","123553","247657","460","247657","733","123553","247595","255577","NA","253392","684","248703","247631","247403","NA","249799","125911","247622","507","experiment-visual-word-paradigm","255442.0","fed","1607","wolf.mp4","1920"
"59_documents.ogg","white","legacy","False","C:\Users\yarbus\Desktop\Team Cat\visual-word-paradigm\temp","legacy","legacy","static","C:\Users\yarbus\Desktop\Team Cat\visual-word-paradigm\config.yml","0","0","8","0","8","0","0","8","8","0","8","0","8","8","8","0","8","0","8","0","113.0664271019475","50","Sat Jul 13 15:06:23 2024","20","The main experiment item","False","4243.99995803833","125910","pygame-experiment-visual-world-paradigm.osexp","C:\Users\yarbus\Desktop\Team Cat\visual-word-paradigm","black","0","0","medium-open","1000","False","mono","False","32","no","black","no","yes","1080","59","Look at the screen and listen carefully. press any key to continue","True","mono","black","32","None","None","c","legacy","-1","chicken","8","8","office","C:/Users/yarbus/Desktop/Team Cat/visual-word-paradigm/trials/subject-10.csv","2000","legacy","Melodramatic Milgram","4.0.13","False","mono","black","32","None","380","Pause. Look at the fixation dot in order to continue.","30000","-480","480","-480","480","270","270","-270","-270","1000","0","2","legacy","In the office, the girl printed documents. ","500","1024","2","3.74399995803833","48000","-16","C:\Users\yarbus\AppData\Local\Temp\tmp4v2df3pk.opensesame_pool\59_documents.ogg","brainmodel","documents","weights","fishing","brainmodel","documents","weights","fishing","experiment","documents","10","even","2487","BR","262317.0","C:\Users\yarbus\Desktop\Team Cat\visual-word-paradigm\temp","3286","123553","255845","460","255845","733","123553","255788","292321","NA","262263","684","256886","255815","255580","NA","257960","125911","255812","507","experiment-visual-word-paradigm","264317.0","printed","1575","wolf.mp4","1920"
"29_ferriswheel.ogg","white","legacy","True","C:\Users\yarbus\Desktop\Team Cat\visual-word-paradigm\temp","legacy","legacy","motion","C:\Users\yarbus\Desktop\Team Cat\visual-word-paradigm\config.yml","0","0","9","0","9","0","0","9","9","0","9","0","9","9","9","0","9","0","9","0","8.881824136966516","50","Sat Jul 13 15:06:23 2024","20","The main experiment item","False","4843.999862670898","125910","pygame-experiment-visual-world-paradigm.osexp","C:\Users\yarbus\Desktop\Team Cat\visual-word-paradigm","black","0","0","medium-open","1000","False","mono","False","32","no","black","no","yes","1080","29","Look at the screen and listen carefully. press any key to continue","True","mono","black","32","None","None","c","legacy","-1","chicken","9","9","carnival","C:/Users/yarbus/Desktop/Team Cat/visual-word-paradigm/trials/subject-10.csv","2000","legacy","Melodramatic Milgram","4.0.13","False","mono","black","32","None","380","Pause. Look at the fixation dot in order to continue.","30000","-480","480","-480","480","270","270","-270","-270","1000","0","2","legacy","At the carnival, the girl rode on a Ferris wheel.","500","1024","2","4.343999862670898","48000","-16","C:\Users\yarbus\AppData\Local\Temp\tmp4v2df3pk.opensesame_pool\29_ferriswheel.ogg","vegetables","button","paperclip","ferriswheel","vegetables","button","paperclip","ferriswheel","experiment","ferriswheel","10","even","3120","TR","301327.0","C:\Users\yarbus\Desktop\Team Cat\visual-word-paradigm\temp","3286","123553","294237","460","294237","733","123553","293944","303327","NA","301288","684","295280","293983","292334","NA","296380","125911","293967","507","experiment-visual-word-paradigm","303327.0","rode","1662","wolf.mp4","1920"
"34_popcorn.ogg","white","legacy","True","C:\Users\yarbus\Desktop\Team Cat\visual-word-paradigm\temp","legacy","legacy","static","C:\Users\yarbus\Desktop\Team Cat\visual-word-paradigm\config.yml","0","0","10","0","10","0","0","10","10","0","10","0","10","10","10","0","10","0","10","0","49.75563795671802","50","Sat Jul 13 15:06:23 2024","20","The main experiment item","False","4003.999948501587","125910","pygame-experiment-visual-world-paradigm.osexp","C:\Users\yarbus\Desktop\Team Cat\visual-word-paradigm","black","0","0","medium-open","1000","False","mono","False","32","no","black","no","yes","1080","34","Look at the screen and listen carefully. press any key to continue","True","mono","black","32","None","None","c","legacy","-1","chicken","10","10","cinema","C:/Users/yarbus/Desktop/Team Cat/visual-word-paradigm/trials/subject-10.csv","2000","legacy","Melodramatic Milgram","4.0.13","False","mono","black","32","None","380","Pause. Look at the fixation dot in order to continue.","30000","-480","480","-480","480","270","270","-270","-270","1000","0","2","legacy","At the cinema, the girl ate popcorn.","500","1024","2","3.503999948501587","48000","-16","C:\Users\yarbus\AppData\Local\Temp\tmp4v2df3pk.opensesame_pool\34_popcorn.ogg","popcorn","dice","fishing","keyboard","popcorn","dice","fishing","keyboard","experiment","popcorn","10","even","2182","BL","309810.0","C:\Users\yarbus\Desktop\Team Cat\visual-word-paradigm\temp","3286","123553","303585","460","303585","733","123553","303521","312700","NA","309770","684","304629","303556","303329","NA","305701","125911","303544","507","experiment-visual-word-paradigm","311810.0","ate","1685","wolf.mp4","1920"
"51_beer.ogg","white","legacy","True","C:\Users\yarbus\Desktop\Team Cat\visual-word-paradigm\temp","legacy","legacy","static","C:\Users\yarbus\Desktop\Team Cat\visual-word-paradigm\config.yml","0","0","11","0","11","0","0","11","11","0","11","0","11","11","11","0","11","0","11","0","44.08800367446911","50","Sat Jul 13 15:06:23 2024","20","The main experiment item","False","3308.000087738037","125910","pygame-experiment-visual-world-paradigm.osexp","C:\Users\yarbus\Desktop\Team Cat\visual-word-paradigm","black","0","0","medium-open","1000","False","mono","False","32","no","black","no","yes","1080","51","Look at the screen and listen carefully. press any key to continue","True","mono","black","32","None","None","c","legacy","-1","chicken","11","11","bar","C:/Users/yarbus/Desktop/Team Cat/visual-word-paradigm/trials/subject-10.csv","2000","legacy","Melodramatic Milgram","4.0.13","False","mono","black","32","None","380","Pause. Look at the fixation dot in order to continue.","30000","-480","480","-480","480","270","270","-270","-270","1000","0","2","legacy","In the bar, the girl drank beer. ","500","1024","2","2.808000087738037","48000","-16","C:\Users\yarbus\AppData\Local\Temp\tmp4v2df3pk.opensesame_pool\51_beer.ogg","treadmill","beer","bathtub","plants","treadmill","beer","bathtub","plants","experiment","beer","10","even","2090","BR","318535.0","C:\Users\yarbus\Desktop\Team Cat\visual-word-paradigm\temp","3286","123553","313026","460","313026","733","123553","312957","320628","NA","318495","684","314056","312988","312717","NA","315134","125911","312980","507","experiment-visual-word-paradigm","320535.0","drank","1585","wolf.mp4","1920"
"27_treadmill.ogg","white","legacy","True","C:\Users\yarbus\Desktop\Team Cat\visual-word-paradigm\temp","legacy","legacy","motion","C:\Users\yarbus\Desktop\Team Cat\visual-word-paradigm\config.yml","0","0","12","0","12","0","0","12","12","0","12","0","12","12","12","0","12","0","12","0","41.861023804011225","50","Sat Jul 13 15:06:23 2024","20","The main experiment item","False","4339.9999141693115","125910","pygame-experiment-visual-world-paradigm.osexp","C:\Users\yarbus\Desktop\Team Cat\visual-word-paradigm","black","0","0","medium-open","1000","False","mono","False","32","no","black","no","yes","1080","27","Look at the screen and listen carefully. press any key to continue","True","mono","black","32","None","None","c","legacy","-1","chicken","12","12","gym","C:/Users/yarbus/Desktop/Team Cat/visual-word-paradigm/trials/subject-10.csv","2000","legacy","Melodramatic Milgram","4.0.13","False","mono","black","32","None","380","Pause. Look at the fixation dot in order to continue.","30000","-480","480","-480","480","270","270","-270","-270","1000","0","2","legacy","At the gym, the girl ran on the treadmill.","500","1024","2","3.8399999141693115","48000","-16","C:\Users\yarbus\AppData\Local\Temp\tmp4v2df3pk.opensesame_pool\27_treadmill.ogg","oven","duck","belt","treadmill","oven","duck","belt","treadmill","experiment","treadmill","10","even","2689","TR","327491.0","C:\Users\yarbus\Desktop\Team Cat\visual-word-paradigm\temp","3286","123553","320895","460","320896","733","123553","320835","329491","NA","327455","684","321945","320859","320641","NA","323038","125911","320858","507","experiment-visual-word-paradigm","329491.0","ran","1849","wolf.mp4","1920"
"19_sandcastle.ogg","white","legacy","True","C:\Users\yarbus\Desktop\Team Cat\visual-word-paradigm\temp","legacy","legacy","motion","C:\Users\yarbus\Desktop\Team Cat\visual-word-paradigm\config.yml","0","0","13","0","13","0","0","13","13","0","13","0","13","13","13","0","13","0","13","0","21.71353839796727","50","Sat Jul 13 15:06:23 2024","20","The main experiment item","False","3476.0000705718994","125910","pygame-experiment-visual-world-paradigm.osexp","C:\Users\yarbus\Desktop\Team Cat\visual-word-paradigm","black","0","0","medium-open","1000","False","mono","False","32","no","black","no","yes","1080","19","Look at the screen and listen carefully. press any key to continue","True","mono","black","32","None","None","c","legacy","-1","chicken","13","13","beach","C:/Users/yarbus/Desktop/Team Cat/visual-word-paradigm/trials/subject-10.csv","2000","legacy","Melodramatic Milgram","4.0.13","False","mono","black","32","None","380","Pause. Look at the fixation dot in order to continue.","30000","-480","480","-480","480","270","270","-270","-270","1000","0","2","legacy","At the beach, the girl built a sandcastle.","500","1024","2","2.9760000705718994","48000","-16","C:\Users\yarbus\AppData\Local\Temp\tmp4v2df3pk.opensesame_pool\19_sandcastle.ogg","meditation","dart","math","sandcastle","meditation","dart","math","sandcastle","experiment","sandcastle","10","even","1787","TR","335503.0","C:\Users\yarbus\Desktop\Team Cat\visual-word-paradigm\temp","3286","123553","329756","460","329756","733","123553","329683","337555","NA","335461","684","330800","329720","329503","NA","331900","125911","329706","507","experiment-visual-word-paradigm","337503.0","built","1169","wolf.mp4","1920"
"40_shopping_cart.ogg","white","legacy","True","C:\Users\yarbus\Desktop\Team Cat\visual-word-paradigm\temp","legacy","legacy","static","C:\Users\yarbus\Desktop\Team Cat\visual-word-paradigm\config.yml","0","0","14","0","14","0","0","14","14","0","14","0","14","14","14","0","14","0","14","0","46.072930520208935","50","Sat Jul 13 15:06:23 2024","20","The main experiment item","False","4796.000003814697","125910","pygame-experiment-visual-world-paradigm.osexp","C:\Users\yarbus\Desktop\Team Cat\visual-word-paradigm","black","0","0","medium-open","1000","False","mono","False","32","no","black","no","yes","1080","40","Look at the screen and listen carefully. press any key to continue","True","mono","black","32","None","None","c","legacy","-1","chicken","14","14","grocery store","C:/Users/yarbus/Desktop/Team Cat/visual-word-paradigm/trials/subject-10.csv","2000","legacy","Melodramatic Milgram","4.0.13","False","mono","black","32","None","380","Pause. Look at the fixation dot in order to continue.","30000","-480","480","-480","480","270","270","-270","-270","1000","0","2","legacy","At the grocery store, the girl pushed the shopping cart","500","1024","2","4.296000003814697","48000","-16","C:\Users\yarbus\AppData\Local\Temp\tmp4v2df3pk.opensesame_pool\40_shopping_cart.ogg","shoppingcart","nintendods","bulldozer","paperclip","shoppingcart","nintendods","bulldozer","paperclip","experiment","shoppingcart","10","even","3355","BL","344840.0","C:\Users\yarbus\Desktop\Team Cat\visual-word-paradigm\temp","3286","123553","337804","460","337804","733","123553","337743","346851","NA","344791","684","338839","337768","337568","NA","339920","125911","337766","507","experiment-visual-word-paradigm","346840.0","pushed","2390","wolf.mp4","1920"
"13_dice.ogg","white","legacy","True","C:\Users\yarbus\Desktop\Team Cat\visual-word-paradigm\temp","legacy","legacy","motion","C:\Users\yarbus\Desktop\Team Cat\visual-word-paradigm\config.yml","0","0","15","0","15","0","0","15","15","0","15","0","15","15","15","0","15","0","15","0","31.529461993506953","50","Sat Jul 13 15:06:23 2024","20","The main experiment item","False","3644.0000534057617","125910","pygame-experiment-visual-world-paradigm.osexp","C:\Users\yarbus\Desktop\Team Cat\visual-word-paradigm","black","0","0","medium-open","1000","False","mono","False","32","no","black","no","yes","1080","13","Look at the screen and listen carefully. press any key to continue","True","mono","black","32","None","None","c","legacy","-1","chicken","15","15","casino","C:/Users/yarbus/Desktop/Team Cat/visual-word-paradigm/trials/subject-10.csv","2000","legacy","Melodramatic Milgram","4.0.13","False","mono","black","32","None","380","Pause. Look at the fixation dot in order to continue.","30000","-480","480","-480","480","270","270","-270","-270","1000","0","2","legacy","At the casino, the girl threw a dice.","500","1024","2","3.1440000534057617","48000","-16","C:\Users\yarbus\AppData\Local\Temp\tmp4v2df3pk.opensesame_pool\13_dice.ogg","moon","calendar","dice","injection","moon","calendar","dice","injection","experiment","dice","10","even","2221","TL","353074.0","C:\Users\yarbus\Desktop\Team Cat\visual-word-paradigm\temp","3286","123553","347117","460","347117","733","123553","347053","355126","NA","353027","684","348160","347090","346863","NA","349297","125911","347076","507","experiment-visual-word-paradigm","355074.0","threw","1621","wolf.mp4","1920"
"24_cake.ogg","white","legacy","True","C:\Users\yarbus\Desktop\Team Cat\visual-word-paradigm\temp","legacy","legacy","motion","C:\Users\yarbus\Desktop\Team Cat\visual-word-paradigm\config.yml","0","0","16","0","16","0","0","16","16","0","16","0","16","16","16","0","16","0","16","0","44.551470666634565","50","Sat Jul 13 15:06:23 2024","20","The main experiment item","False","3548.0000972747803","125910","pygame-experiment-visual-world-paradigm.osexp","C:\Users\yarbus\Desktop\Team Cat\visual-word-paradigm","black","0","0","medium-open","1000","False","mono","False","32","no","black","no","yes","1080","24","Look at the screen and listen carefully. press any key to continue","True","mono","black","32","None","None","c","legacy","-1","chicken","16","16","kitchen","C:/Users/yarbus/Desktop/Team Cat/visual-word-paradigm/trials/subject-10.csv","2000","legacy","Melodramatic Milgram","4.0.13","False","mono","black","32","None","380","Pause. Look at the fixation dot in order to continue.","30000","-480","480","-480","480","270","270","-270","-270","1000","0","2","legacy","In the kitchen, the girl baked a cake.","500","1024","2","3.0480000972747803","48000","-16","C:\Users\yarbus\AppData\Local\Temp\tmp4v2df3pk.opensesame_pool\24_cake.ogg","button","cello","seashells","cake","button","cello","seashells","cake","experiment","cake","10","even","2253","TR","361234.0","C:\Users\yarbus\Desktop\Team Cat\visual-word-paradigm\temp","3286","123553","355391","460","355391","733","123553","355324","364803","NA","361179","684","356434","355358","355138","NA","357504","125911","355347","507","experiment-visual-word-paradigm","363234.0","baked","1409","wolf.mp4","1920"
"18_armchair.ogg","white","legacy","True","C:\Users\yarbus\Desktop\Team Cat\visual-word-paradigm\temp","legacy","legacy","motion","C:\Users\yarbus\Desktop\Team Cat\visual-word-paradigm\config.yml","0","0","17","0","17","0","0","17","17","0","17","0","17","17","17","0","17","0","17","0","47.8697279958848","50","Sat Jul 13 15:06:23 2024","20","The main experiment item","False","3788.0001068115234","125910","pygame-experiment-visual-world-paradigm.osexp","C:\Users\yarbus\Desktop\Team Cat\visual-word-paradigm","black","0","0","medium-open","1000","False","mono","False","32","no","black","no","yes","1080","18","Look at the screen and listen carefully. press any key to continue","True","mono","black","32","None","None","c","legacy","-1","chicken","17","17","living room","C:/Users/yarbus/Desktop/Team Cat/visual-word-paradigm/trials/subject-10.csv","2000","legacy","Melodramatic Milgram","4.0.13","False","mono","black","32","None","380","Pause. Look at the fixation dot in order to continue.","30000","-480","480","-480","480","270","270","-270","-270","1000","0","2","legacy","In the living room, the girl sat in an armchair.","500","1024","2","3.2880001068115234","48000","-16","C:\Users\yarbus\AppData\Local\Temp\tmp4v2df3pk.opensesame_pool\18_armchair.ogg","wolf","battleship","frisbee","armchair","wolf","battleship","frisbee","armchair","experiment","armchair","10","even","2048","TR","371308.0","C:\Users\yarbus\Desktop\Team Cat\visual-word-paradigm\temp","3286","123553","365221","460","365221","733","123553","365138","374016","NA","371265","684","366262","365178","364814","NA","367361","125911","365165","507","experiment-visual-word-paradigm","373308.0","sat","1290","wolf.mp4","1920"
"41_drinks.ogg","white","legacy","True","C:\Users\yarbus\Desktop\Team Cat\visual-word-paradigm\temp","legacy","legacy","static","C:\Users\yarbus\Desktop\Team Cat\visual-word-paradigm\config.yml","0","0","18","0","18","0","0","18","18","0","18","0","18","18","18","0","18","0","18","0","38.26374576541087","50","Sat Jul 13 15:06:23 2024","20","The main experiment item","False","4075.999975204468","125910","pygame-experiment-visual-world-paradigm.osexp","C:\Users\yarbus\Desktop\Team Cat\visual-word-paradigm","black","0","0","medium-open","1000","False","mono","False","32","no","black","no","yes","1080","41","Look at the screen and listen carefully. press any key to continue","True","mono","black","32","None","None","c","legacy","-1","chicken","18","18","party","C:/Users/yarbus/Desktop/Team Cat/visual-word-paradigm/trials/subject-10.csv","2000","legacy","Melodramatic Milgram","4.0.13","False","mono","black","32","None","380","Pause. Look at the fixation dot in order to continue.","30000","-480","480","-480","480","270","270","-270","-270","1000","0","2","legacy","At the party, the girl served drinks to the guests.","500","1024","2","3.5759999752044678","48000","-16","C:\Users\yarbus\AppData\Local\Temp\tmp4v2df3pk.opensesame_pool\41_drinks.ogg","drinks","nailclipper","cats","shoppingcart","drinks","nailclipper","cats","shoppingcart","experiment","drinks","10","even","2115","BL","380601.0","C:\Users\yarbus\Desktop\Team Cat\visual-word-paradigm\temp","3286","123553","374323","460","374323","733","123553","374253","382877","NA","380553","684","375354","374289","374029","NA","376412","125911","374276","507","experiment-visual-word-paradigm","382601.0","served","1333","wolf.mp4","1920"
"56_marshmallows.ogg","white","legacy","True","C:\Users\yarbus\Desktop\Team Cat\visual-word-paradigm\temp","legacy","legacy","static","C:\Users\yarbus\Desktop\Team Cat\visual-word-paradigm\config.yml","0","0","19","0","19","0","0","19","19","0","19","0","19","19","19","0","19","0","19","0","46.94834410881814","50","Sat Jul 13 15:06:23 2024","20","The main experiment item","False","4507.999897003174","125910","pygame-experiment-visual-world-paradigm.osexp","C:\Users\yarbus\Desktop\Team Cat\visual-word-paradigm","black","0","0","medium-open","1000","False","mono","False","32","no","black","no","yes","1080","56","Look at the screen and listen carefully. press any key to continue","True","mono","black","32","None","None","c","legacy","-1","chicken","19","19","campfire","C:/Users/yarbus/Desktop/Team Cat/visual-word-paradigm/trials/subject-10.csv","2000","legacy","Melodramatic Milgram","4.0.13","False","mono","black","32","None","380","Pause. Look at the fixation dot in order to continue.","30000","-480","480","-480","480","270","270","-270","-270","1000","0","2","legacy","At the campfire, the girl roasted marshmallows.","500","1024","2","4.007999897003174","48000","-16","C:\Users\yarbus\AppData\Local\Temp\tmp4v2df3pk.opensesame_pool\56_marshmallows.ogg","card","marshmallow","dice","mouse","card","marshmallow","dice","mouse","experiment","marshmallow","10","even","2892","BR","389892.0","C:\Users\yarbus\Desktop\Team Cat\visual-word-paradigm\temp","3286","123553","383157","460","383157","733","123553","383094","392079","NA","389842","684","384191","383128","382890","NA","385262","125911","383118","507","experiment-visual-word-paradigm","391892.0","roasted","2167","wolf.mp4","1920"
"45_basketball.ogg","white","legacy","True","C:\Users\yarbus\Desktop\Team Cat\visual-word-paradigm\temp","legacy","legacy","static","C:\Users\yarbus\Desktop\Team Cat\visual-word-paradigm\config.yml","0","0","20","0","20","0","0","20","20","0","20","0","20","20","20","0","20","0","20","0","15.851993323238501","50","Sat Jul 13 15:06:23 2024","20","The main experiment item","False","4196.000099182129","125910","pygame-experiment-visual-world-paradigm.osexp","C:\Users\yarbus\Desktop\Team Cat\visual-word-paradigm","black","0","0","medium-open","1000","False","mono","False","32","no","black","no","yes","1080","45","Look at the screen and listen carefully. press any key to continue","True","mono","black","32","None","None","c","legacy","-1","chicken","20","20","sports hall","C:/Users/yarbus/Desktop/Team Cat/visual-word-paradigm/trials/subject-10.csv","2000","legacy","Melodramatic Milgram","4.0.13","False","mono","black","32","None","380","Pause. Look at the fixation dot in order to continue.","30000","-480","480","-480","480","270","270","-270","-270","1000","0","2","legacy","At the sports hall, the girl played basketball.","500","1024","2","3.696000099182129","48000","-16","C:\Users\yarbus\AppData\Local\Temp\tmp4v2df3pk.opensesame_pool\45_basketball.ogg","basketball","mitten","clothes","boxtruck","basketball","mitten","clothes","boxtruck","experiment","basketball","10","even","2613","BL","398791.0","C:\Users\yarbus\Desktop\Team Cat\visual-word-paradigm\temp","3286","123553","392361","460","392361","733","123553","392283","400922","NA","398738","684","393403","392324","392092","NA","394485","125911","392311","507","experiment-visual-word-paradigm","400791.0","played","1819","wolf.mp4","1920"
"05_cookie.ogg","white","legacy","True","C:\Users\yarbus\Desktop\Team Cat\visual-word-paradigm\temp","legacy","legacy","motion","C:\Users\yarbus\Desktop\Team Cat\visual-word-paradigm\config.yml","0","0","21","0","21","0","0","21","21","0","21","0","21","21","21","0","21","0","21","0","49.95860397248906","50","Sat Jul 13 15:06:23 2024","20","The main experiment item","False","3907.9999923706055","125910","pygame-experiment-visual-world-paradigm.osexp","C:\Users\yarbus\Desktop\Team Cat\visual-word-paradigm","black","0","0","medium-open","1000","False","mono","False","32","no","black","no","yes","1080","5","Look at the screen and listen carefully. press any key to continue","True","mono","black","32","None","None","c","legacy","-1","chicken","21","21","breakfast","C:/Users/yarbus/Desktop/Team Cat/visual-word-paradigm/trials/subject-10.csv","2000","legacy","Melodramatic Milgram","4.0.13","False","mono","black","32","None","380","Pause. Look at the fixation dot in order to continue.","30000","-480","480","-480","480","270","270","-270","-270","1000","0","2","legacy","At breakfast, the girl ate a cookie.","500","1024","2","3.4079999923706055","48000","-16","C:\Users\yarbus\AppData\Local\Temp\tmp4v2df3pk.opensesame_pool\05_cookie.ogg","pants","nailclipper","cookie","movie","pants","nailclipper","cookie","movie","experiment","cookie","10","even","2350","TL","407359.0","C:\Users\yarbus\Desktop\Team Cat\visual-word-paradigm\temp","3286","123553","401178","460","401178","733","123553","401129","409757","NA","407304","684","402222","401154","400924","NA","403325","125911","401152","507","experiment-visual-word-paradigm","409359.0","ate","1740","wolf.mp4","1920"
"38_plants.ogg","white","legacy","True","C:\Users\yarbus\Desktop\Team Cat\visual-word-paradigm\temp","legacy","legacy","static","C:\Users\yarbus\Desktop\Team Cat\visual-word-paradigm\config.yml","0","0","22","0","22","0","0","22","22","0","22","0","22","22","22","0","22","0","22","0","26.670835802426474","50","Sat Jul 13 15:06:23 2024","20","The main experiment item","False","4099.999904632568","125910","pygame-experiment-visual-world-paradigm.osexp","C:\Users\yarbus\Desktop\Team Cat\visual-word-paradigm","black","0","0","medium-open","1000","False","mono","False","32","no","black","no","yes","1080","38","Look at the screen and listen carefully. press any key to continue","True","mono","black","32","None","None","c","legacy","-1","chicken","22","22","backyard","C:/Users/yarbus/Desktop/Team Cat/visual-word-paradigm/trials/subject-10.csv","2000","legacy","Melodramatic Milgram","4.0.13","False","mono","black","32","None","380","Pause. Look at the fixation dot in order to continue.","30000","-480","480","-480","480","270","270","-270","-270","1000","0","2","legacy","In the backyard, the girl watered the plants.","500","1024","2","3.5999999046325684","48000","-16","C:\Users\yarbus\AppData\Local\Temp\tmp4v2df3pk.opensesame_pool\38_plants.ogg","plants","paintcan","brick","calendar","plants","paintcan","brick","calendar","experiment","plants","10","even","2387","BL","416377.0","C:\Users\yarbus\Desktop\Team Cat\visual-word-paradigm\temp","3286","123553","410051","460","410051","733","123553","409984","418473","NA","416328","684","411095","410020","409770","NA","412176","125911","410008","507","experiment-visual-word-paradigm","418377.0","watered","1510","wolf.mp4","1920"
"21_kite.ogg","white","legacy","True","C:\Users\yarbus\Desktop\Team Cat\visual-word-paradigm\temp","legacy","legacy","motion","C:\Users\yarbus\Desktop\Team Cat\visual-word-paradigm\config.yml","0","0","23","0","23","0","0","23","23","0","23","0","23","23","23","0","23","0","23","0","47.41405650817063","50","Sat Jul 13 15:06:23 2024","20","The main experiment item","False","3884.000062942505","125910","pygame-experiment-visual-world-paradigm.osexp","C:\Users\yarbus\Desktop\Team Cat\visual-word-paradigm","black","0","0","medium-open","1000","False","mono","False","32","no","black","no","yes","1080","21","Look at the screen and listen carefully. press any key to continue","True","mono","black","32","None","None","c","legacy","-1","chicken","23","23","park","C:/Users/yarbus/Desktop/Team Cat/visual-word-paradigm/trials/subject-10.csv","2000","legacy","Melodramatic Milgram","4.0.13","False","mono","black","32","None","380","Pause. Look at the fixation dot in order to continue.","30000","-480","480","-480","480","270","270","-270","-270","1000","0","2","legacy","At the park, the girl flew a kite.","500","1024","2","3.384000062942505","48000","-16","C:\Users\yarbus\AppData\Local\Temp\tmp4v2df3pk.opensesame_pool\21_kite.ogg","cake","pool","blood","kite","cake","pool","blood","kite","experiment","kite","10","even","2440","TR","424834.0","C:\Users\yarbus\Desktop\Team Cat\visual-word-paradigm\temp","3286","123553","418731","460","418731","733","123553","418667","427210","NA","424785","684","419763","418696","418475","NA","420849","125911","418694","507","experiment-visual-word-paradigm","426834.0","flew","1354","wolf.mp4","1920"
"10_guitar.ogg","white","legacy","True","C:\Users\yarbus\Desktop\Team Cat\visual-word-paradigm\temp","legacy","legacy","motion","C:\Users\yarbus\Desktop\Team Cat\visual-word-paradigm\config.yml","0","0","24","0","24","0","0","24","24","0","24","0","24","24","24","0","24","0","24","0","44.824237100925636","50","Sat Jul 13 15:06:23 2024","20","The main experiment item","False","4220.0000286102295","125910","pygame-experiment-visual-world-paradigm.osexp","C:\Users\yarbus\Desktop\Team Cat\visual-word-paradigm","black","0","0","medium-open","1000","False","mono","False","32","no","black","no","yes","1080","10","Look at the screen and listen carefully. press any key to continue","True","mono","black","32","None","None","c","legacy","-1","chicken","24","24","musical class","C:/Users/yarbus/Desktop/Team Cat/visual-word-paradigm/trials/subject-10.csv","2000","legacy","Melodramatic Milgram","4.0.13","False","mono","black","32","None","380","Pause. Look at the fixation dot in order to continue.","30000","-480","480","-480","480","270","270","-270","-270","1000","0","2","legacy","During musical class, the girl played guitar. ","500","1024","2","3.7200000286102295","48000","-16","C:\Users\yarbus\AppData\Local\Temp\tmp4v2df3pk.opensesame_pool\10_guitar.ogg","chicken","bowl","guitar","hiking","chicken","bowl","guitar","hiking","experiment","guitar","10","even","2750","TL","434007.0","C:\Users\yarbus\Desktop\Team Cat\visual-word-paradigm\temp","3286","123553","427490","460","427490","733","123553","427426","436114","NA","433954","684","428531","427460","427213","NA","429606","125911","427449","507","experiment-visual-word-paradigm","436007.0","played","1897","wolf.mp4","1920"
"48_cigarette.ogg","white","legacy","True","C:\Users\yarbus\Desktop\Team Cat\visual-word-paradigm\temp","legacy","legacy","static","C:\Users\yarbus\Desktop\Team Cat\visual-word-paradigm\config.yml","0","0","25","0","25","0","0","25","25","0","25","0","25","25","25","0","25","0","25","0","42.67197140044039","50","Sat Jul 13 15:06:23 2024","20","The main experiment item","False","4003.999948501587","125910","pygame-experiment-visual-world-paradigm.osexp","C:\Users\yarbus\Desktop\Team Cat\visual-word-paradigm","black","0","0","medium-open","1000","False","mono","False","32","no","black","no","yes","1080","48","Look at the screen and listen carefully. press any key to continue","True","mono","black","32","None","None","c","legacy","-1","chicken","25","25","terrace","C:/Users/yarbus/Desktop/Team Cat/visual-word-paradigm/trials/subject-10.csv","2000","legacy","Melodramatic Milgram","4.0.13","False","mono","black","32","None","380","Pause. Look at the fixation dot in order to continue.","30000","-480","480","-480","480","270","270","-270","-270","1000","0","2","legacy","On the terrace, the girl smoked a cigarette.","500","1024","2","3.503999948501587","48000","-16","C:\Users\yarbus\AppData\Local\Temp\tmp4v2df3pk.opensesame_pool\48_cigarette.ogg","cigarette","bicycle","fishing","car","cigarette","bicycle","fishing","car","experiment","cigarette","10","even","2273","BL","442611.0","C:\Users\yarbus\Desktop\Team Cat\visual-word-paradigm\temp","3286","123553","436384","460","436384","733","123553","436323","444790","NA","442555","684","437426","436347","436126","NA","438491","125911","436346","507","experiment-visual-word-paradigm","444611.0","smoked","1546","wolf.mp4","1920"
"37_vegetables.ogg","white","legacy","True","C:\Users\yarbus\Desktop\Team Cat\visual-word-paradigm\temp","legacy","legacy","static","C:\Users\yarbus\Desktop\Team Cat\visual-word-paradigm\config.yml","0","0","26","0","26","0","0","26","26","0","26","0","26","26","26","0","26","0","26","0","43.94554000032313","50","Sat Jul 13 15:06:23 2024","20","The main experiment item","False","4003.999948501587","125910","pygame-experiment-visual-world-paradigm.osexp","C:\Users\yarbus\Desktop\Team Cat\visual-word-paradigm","black","0","0","medium-open","1000","False","mono","False","32","no","black","no","yes","1080","37","Look at the screen and listen carefully. press any key to continue","True","mono","black","32","None","None","c","legacy","-1","chicken","26","26","market","C:/Users/yarbus/Desktop/Team Cat/visual-word-paradigm/trials/subject-10.csv","2000","legacy","Melodramatic Milgram","4.0.13","False","mono","black","32","None","380","Pause. Look at the fixation dot in order to continue.","30000","-480","480","-480","480","270","270","-270","-270","1000","0","2","legacy","At the market, the girl bought fresh vegetables.","500","1024","2","3.503999948501587","48000","-16","C:\Users\yarbus\AppData\Local\Temp\tmp4v2df3pk.opensesame_pool\37_vegetables.ogg","vegetables","pacifier","duck","bicycle","vegetables","pacifier","duck","bicycle","experiment","vegetables","10","even","2344","BL","451287.0","C:\Users\yarbus\Desktop\Team Cat\visual-word-paradigm\temp","3286","123553","445071","460","445071","733","123553","444996","453325","NA","451248","684","446103","445035","444794","NA","447180","125911","445019","507","experiment-visual-word-paradigm","453287.0","bought","1606","wolf.mp4","1920"
"16_mouse.ogg","white","legacy","True","C:\Users\yarbus\Desktop\Team Cat\visual-word-paradigm\temp","legacy","legacy","motion","C:\Users\yarbus\Desktop\Team Cat\visual-word-paradigm\config.yml","0","0","27","0","27","0","0","27","27","0","27","0","27","27","27","0","27","0","27","0","48.46497248281492","50","Sat Jul 13 15:06:23 2024","20","The main experiment item","False","3740.000009536743","125910","pygame-experiment-visual-world-paradigm.osexp","C:\Users\yarbus\Desktop\Team Cat\visual-word-paradigm","black","0","0","medium-open","1000","False","mono","False","32","no","black","no","yes","1080","16","Look at the screen and listen carefully. press any key to continue","True","mono","black","32","None","None","c","legacy","-1","chicken","27","27","desk","C:/Users/yarbus/Desktop/Team Cat/visual-word-paradigm/trials/subject-10.csv","2000","legacy","Melodramatic Milgram","4.0.13","False","mono","black","32","None","380","Pause. Look at the fixation dot in order to continue.","30000","-480","480","-480","480","270","270","-270","-270","1000","0","2","legacy","At her desk, the girl clicked the mouse. ","500","1024","2","3.240000009536743","48000","-16","C:\Users\yarbus\AppData\Local\Temp\tmp4v2df3pk.opensesame_pool\16_mouse.ogg","moon","button","mouse","ceilingfan","moon","button","mouse","ceilingfan","experiment","mouse","10","even","2425","TL","459677.0","C:\Users\yarbus\Desktop\Team Cat\visual-word-paradigm\temp","3286","123553","453573","460","453573","733","123553","453513","462862","NA","459621","684","454620","453545","453327","NA","455810","125911","453536","507","experiment-visual-word-paradigm","461677.0","clicked","1427","wolf.mp4","1920"
"20_seashells.ogg","white","legacy","True","C:\Users\yarbus\Desktop\Team Cat\visual-word-paradigm\temp","legacy","legacy","motion","C:\Users\yarbus\Desktop\Team Cat\visual-word-paradigm\config.yml","0","0","28","0","28","0","0","28","28","0","28","0","28","28","28","0","28","0","28","0","18.384430216898274","50","Sat Jul 13 15:06:23 2024","20","The main experiment item","False","3980.0000190734863","125910","pygame-experiment-visual-world-paradigm.osexp","C:\Users\yarbus\Desktop\Team Cat\visual-word-paradigm","black","0","0","medium-open","1000","False","mono","False","32","no","black","no","yes","1080","20","Look at the screen and listen carefully. press any key to continue","True","mono","black","32","None","None","c","legacy","-1","chicken","28","28","beach","C:/Users/yarbus/Desktop/Team Cat/visual-word-paradigm/trials/subject-10.csv","2000","legacy","Melodramatic Milgram","4.0.13","False","mono","black","32","None","380","Pause. Look at the fixation dot in order to continue.","30000","-480","480","-480","480","270","270","-270","-270","1000","0","2","legacy","At the beach, the girl collected seashells.","500","1024","2","3.4800000190734863","48000","-16","C:\Users\yarbus\AppData\Local\Temp\tmp4v2df3pk.opensesame_pool\20_seashells.ogg","documents","basketballhoop","apple","seashells","documents","basketballhoop","apple","seashells","experiment","seashells","10","even","2070","TR","469490.0","C:\Users\yarbus\Desktop\Team Cat\visual-word-paradigm\temp","3286","123553","463222","460","463222","733","123553","463145","471718","NA","469452","684","464271","463181","462865","NA","465356","125911","463169","507","experiment-visual-word-paradigm","471490.0","built","1300","wolf.mp4","1920"
"44_bathtub.ogg","white","legacy","True","C:\Users\yarbus\Desktop\Team Cat\visual-word-paradigm\temp","legacy","legacy","static","C:\Users\yarbus\Desktop\Team Cat\visual-word-paradigm\config.yml","0","0","29","0","29","0","0","29","29","0","29","0","29","29","29","0","29","0","29","0","36.405216399851255","50","Sat Jul 13 15:06:23 2024","20","The main experiment item","False","4099.999904632568","125910","pygame-experiment-visual-world-paradigm.osexp","C:\Users\yarbus\Desktop\Team Cat\visual-word-paradigm","black","0","0","medium-open","1000","False","mono","False","32","no","black","no","yes","1080","44","Look at the screen and listen carefully. press any key to continue","True","mono","black","32","None","None","c","legacy","-1","chicken","29","29","spa","C:/Users/yarbus/Desktop/Team Cat/visual-word-paradigm/trials/subject-10.csv","2000","legacy","Melodramatic Milgram","4.0.13","False","mono","black","32","None","380","Pause. Look at the fixation dot in order to continue.","30000","-480","480","-480","480","270","270","-270","-270","1000","0","2","legacy","In the spa, the girl relaxed in the bathtub.","500","1024","2","3.5999999046325684","48000","-16","C:\Users\yarbus\AppData\Local\Temp\tmp4v2df3pk.opensesame_pool\44_bathtub.ogg","bathtub","wedding","dog","moon","bathtub","wedding","dog","moon","experiment","bathtub","10","even","2713","BL","478293.0","C:\Users\yarbus\Desktop\Team Cat\visual-word-paradigm\temp","3286","123553","471988","460","471988","733","123553","471927","482358","NA","478250","684","473027","471951","471732","NA","474085","125911","471950","507","experiment-visual-word-paradigm","480293.0","relaxed","1683","wolf.mp4","1920"
"26_weights.ogg","white","legacy","True","C:\Users\yarbus\Desktop\Team Cat\visual-word-paradigm\temp","legacy","legacy","motion","C:\Users\yarbus\Desktop\Team Cat\visual-word-paradigm\config.yml","0","0","30","0","30","0","0","30","30","0","30","0","30","30","30","0","30","0","30","0","42.2005211873029","50","Sat Jul 13 15:06:23 2024","20","The main experiment item","False","3907.9999923706055","125910","pygame-experiment-visual-world-paradigm.osexp","C:\Users\yarbus\Desktop\Team Cat\visual-word-paradigm","black","0","0","medium-open","1000","False","mono","False","32","no","black","no","yes","1080","26","Look at the screen and listen carefully. press any key to continue","True","mono","black","32","None","None","c","legacy","-1","chicken","30","30","gym","C:/Users/yarbus/Desktop/Team Cat/visual-word-paradigm/trials/subject-10.csv","2000","legacy","Melodramatic Milgram","4.0.13","False","mono","black","32","None","380","Pause. Look at the fixation dot in order to continue.","30000","-480","480","-480","480","270","270","-270","-270","1000","0","2","legacy","At the gym, the girl lifted weights.","500","1024","2","3.4079999923706055","48000","-16","C:\Users\yarbus\AppData\Local\Temp\tmp4v2df3pk.opensesame_pool\26_weights.ogg","croissant","horse","paintcan","weights","croissant","horse","paintcan","weights","experiment","weights","10","even","2831","TR","488906.0","C:\Users\yarbus\Desktop\Team Cat\visual-word-paradigm\temp","3286","123553","482783","460","482783","733","123553","482702","495555","NA","488868","684","483828","482737","482370","NA","484889","125911","482725","507","experiment-visual-word-paradigm","490906.0","lifted","1825","wolf.mp4","1920"
"64_cats.ogg","white","legacy","True","C:\Users\yarbus\Desktop\Team Cat\visual-word-paradigm\temp","legacy","legacy","static","C:\Users\yarbus\Desktop\Team Cat\visual-word-paradigm\config.yml","0","0","31","0","31","0","0","31","31","0","31","0","31","31","31","0","31","0","31","0","49.4892073325084","50","Sat Jul 13 15:06:23 2024","20","The main experiment item","False","4676.000118255615","125910","pygame-experiment-visual-world-paradigm.osexp","C:\Users\yarbus\Desktop\Team Cat\visual-word-paradigm","black","0","0","medium-open","1000","False","mono","False","32","no","black","no","yes","1080","64","Look at the screen and listen carefully. press any key to continue","True","mono","black","32","None","None","c","legacy","-1","chicken","31","31","pet store","C:/Users/yarbus/Desktop/Team Cat/visual-word-paradigm/trials/subject-10.csv","2000","legacy","Melodramatic Milgram","4.0.13","False","mono","black","32","None","380","Pause. Look at the fixation dot in order to continue.","30000","-480","480","-480","480","270","270","-270","-270","1000","0","2","legacy","At the pet store, the girl cuddled with adorable cats.","500","1024","2","4.176000118255615","48000","-16","C:\Users\yarbus\AppData\Local\Temp\tmp4v2df3pk.opensesame_pool\64_cats.ogg","battery","cats","paperairplane","ceilingfan","battery","cats","paperairplane","ceilingfan","experiment","cats","10","even","3384","BR","503204.0","C:\Users\yarbus\Desktop\Team Cat\visual-word-paradigm\temp","3286","123553","496321","460","496321","733","123553","496193","516348","NA","503166","684","497360","496218","495558","NA","498428","125911","496217","507","experiment-visual-word-paradigm","505204.0","cuddled","1510","wolf.mp4","1920"
"39_clothes.ogg","white","legacy","True","C:\Users\yarbus\Desktop\Team Cat\visual-word-paradigm\temp","legacy","legacy","static","C:\Users\yarbus\Desktop\Team Cat\visual-word-paradigm\config.yml","0","0","32","0","32","0","0","32","32","0","32","0","32","32","32","0","32","0","32","0","22.84557176172224","50","Sat Jul 13 15:06:23 2024","20","The main experiment item","False","4243.99995803833","125910","pygame-experiment-visual-world-paradigm.osexp","C:\Users\yarbus\Desktop\Team Cat\visual-word-paradigm","black","0","0","medium-open","1000","False","mono","False","32","no","black","no","yes","1080","39","Look at the screen and listen carefully. press any key to continue","True","mono","black","32","None","None","c","legacy","-1","chicken","32","32","laundromat","C:/Users/yarbus/Desktop/Team Cat/visual-word-paradigm/trials/subject-10.csv","2000","legacy","Melodramatic Milgram","4.0.13","False","mono","black","32","None","380","Pause. Look at the fixation dot in order to continue.","30000","-480","480","-480","480","270","270","-270","-270","1000","0","2","legacy","At the laundromat, the girl washed her clothes.","500","1024","2","3.74399995803833","48000","-16","C:\Users\yarbus\AppData\Local\Temp\tmp4v2df3pk.opensesame_pool\39_clothes.ogg","clothes","bookshelf","horse","armchair","clothes","bookshelf","horse","armchair","experiment","clothes","10","even","2812","BL","524210.0","C:\Users\yarbus\Desktop\Team Cat\visual-word-paradigm\temp","3286","123553","517741","460","517741","733","123553","517530","526210","NA","524165","684","518783","517565","516350","NA","519858","125911","517553","507","experiment-visual-word-paradigm","526210.0","washed","2027","wolf.mp4","1920"
"49_blood.ogg","white","legacy","True","C:\Users\yarbus\Desktop\Team Cat\visual-word-paradigm\temp","legacy","legacy","static","C:\Users\yarbus\Desktop\Team Cat\visual-word-paradigm\config.yml","0","0","33","0","33","0","0","33","33","0","33","0","33","33","33","0","33","0","33","0","49.71171406580142","50","Sat Jul 13 15:06:23 2024","20","The main experiment item","False","4267.999887466431","125910","pygame-experiment-visual-world-paradigm.osexp","C:\Users\yarbus\Desktop\Team Cat\visual-word-paradigm","black","0","0","medium-open","1000","False","mono","False","32","no","black","no","yes","1080","49","Look at the screen and listen carefully. press any key to continue","True","mono","black","32","None","None","c","legacy","-1","chicken","33","33","hospital","C:/Users/yarbus/Desktop/Team Cat/visual-word-paradigm/trials/subject-10.csv","2000","legacy","Melodramatic Milgram","4.0.13","False","mono","black","32","None","380","Pause. Look at the fixation dot in order to continue.","30000","-480","480","-480","480","270","270","-270","-270","1000","0","2","legacy","In the hospital, the girl donated blood.","500","1024","2","3.7679998874664307","48000","-16","C:\Users\yarbus\AppData\Local\Temp\tmp4v2df3pk.opensesame_pool\49_blood.ogg","calendar","blood","archery","boxingglove","calendar","blood","archery","boxingglove","experiment","blood","10","even","2734","BR","532980.0","C:\Users\yarbus\Desktop\Team Cat\visual-word-paradigm\temp","3286","123553","526481","460","526481","733","123553","526403","535239","NA","532936","684","527522","526444","526222","NA","528601","125911","526436","507","experiment-visual-word-paradigm","534980.0","donated","1890","wolf.mp4","1920"
"03_sandwich.ogg","white","legacy","True","C:\Users\yarbus\Desktop\Team Cat\visual-word-paradigm\temp","legacy","legacy","motion","C:\Users\yarbus\Desktop\Team Cat\visual-word-paradigm\config.yml","0","0","34","0","34","0","0","34","34","0","34","0","34","34","34","0","34","0","34","0","29.241199045182846","50","Sat Jul 13 15:06:23 2024","20","The main experiment item","False","4099.999904632568","125910","pygame-experiment-visual-world-paradigm.osexp","C:\Users\yarbus\Desktop\Team Cat\visual-word-paradigm","black","0","0","medium-open","1000","False","mono","False","32","no","black","no","yes","1080","3","Look at the screen and listen carefully. press any key to continue","True","mono","black","32","None","None","c","legacy","-1","chicken","34","34","dinner time","C:/Users/yarbus/Desktop/Team Cat/visual-word-paradigm/trials/subject-10.csv","2000","legacy","Melodramatic Milgram","4.0.13","False","mono","black","32","None","380","Pause. Look at the fixation dot in order to continue.","30000","-480","480","-480","480","270","270","-270","-270","1000","0","2","legacy","At dinner time, the girl ate a sandwich.","500","1024","2","3.5999999046325684","48000","-16","C:\Users\yarbus\AppData\Local\Temp\tmp4v2df3pk.opensesame_pool\03_sandwich.ogg","bulldozer","belt","sandwich","patioumbrella","bulldozer","belt","sandwich","patioumbrella","experiment","sandwich","10","even","2711","TL","541879.0","C:\Users\yarbus\Desktop\Team Cat\visual-word-paradigm\temp","3286","123553","535524","460","535524","733","123553","535462","543879","NA","541842","684","536568","535494","535253","NA","537672","125911","535485","507","experiment-visual-word-paradigm","543879.0","ate","2287","wolf.mp4","1920"
"14_card.ogg","white","legacy","True","C:\Users\yarbus\Desktop\Team Cat\visual-word-paradigm\temp","legacy","legacy","motion","C:\Users\yarbus\Desktop\Team Cat\visual-word-paradigm\config.yml","0","0","35","0","35","0","0","35","35","0","35","0","35","35","35","0","35","0","35","0","40.333047317553365","50","Sat Jul 13 15:06:23 2024","20","The main experiment item","False","4075.999975204468","125910","pygame-experiment-visual-world-paradigm.osexp","C:\Users\yarbus\Desktop\Team Cat\visual-word-paradigm","black","0","0","medium-open","1000","False","mono","False","32","no","black","no","yes","1080","14","Look at the screen and listen carefully. press any key to continue","True","mono","black","32","None","None","c","legacy","-1","chicken","35","35","casino","C:/Users/yarbus/Desktop/Team Cat/visual-word-paradigm/trials/subject-10.csv","2000","legacy","Melodramatic Milgram","4.0.13","False","mono","black","32","None","380","Pause. Look at the fixation dot in order to continue.","30000","-480","480","-480","480","270","270","-270","-270","1000","0","2","legacy","At the casino, the girl picked a card. ","500","1024","2","3.5759999752044678","48000","-16","C:\Users\yarbus\AppData\Local\Temp\tmp4v2df3pk.opensesame_pool\14_card.ogg","vegetables","sandcastle","card","parkfountain","vegetables","sandcastle","card","parkfountain","experiment","card","10","even","2672","TL","550476.0","C:\Users\yarbus\Desktop\Team Cat\visual-word-paradigm\temp","3286","123553","544144","460","544145","733","123553","544082","552743","NA","550427","684","545186","544114","543891","NA","546293","125911","544105","507","experiment-visual-word-paradigm","552476.0","picked","2075","wolf.mp4","1920"
"46_badminton.ogg","white","legacy","True","C:\Users\yarbus\Desktop\Team Cat\visual-word-paradigm\temp","legacy","legacy","static","C:\Users\yarbus\Desktop\Team Cat\visual-word-paradigm\config.yml","0","0","36","0","36","0","0","36","36","0","36","0","36","36","36","0","36","0","36","0","44.120588385922474","50","Sat Jul 13 15:06:23 2024","20","The main experiment item","False","3931.999921798706","125910","pygame-experiment-visual-world-paradigm.osexp","C:\Users\yarbus\Desktop\Team Cat\visual-word-paradigm","black","0","0","medium-open","1000","False","mono","False","32","no","black","no","yes","1080","46","Look at the screen and listen carefully. press any key to continue","True","mono","black","32","None","None","c","legacy","-1","chicken","36","36","stadium","C:/Users/yarbus/Desktop/Team Cat/visual-word-paradigm/trials/subject-10.csv","2000","legacy","Melodramatic Milgram","4.0.13","False","mono","black","32","None","380","Pause. Look at the fixation dot in order to continue.","30000","-480","480","-480","480","270","270","-270","-270","1000","0","2","legacy","At the stadium, the girl played badminton.","500","1024","2","3.431999921798706","48000","-16","C:\Users\yarbus\AppData\Local\Temp\tmp4v2df3pk.opensesame_pool\46_badminton.ogg","badminton","cactus","ceilingfan","dishes","badminton","cactus","ceilingfan","dishes","experiment","badminton","10","even","2416","BL","559222.0","C:\Users\yarbus\Desktop\Team Cat\visual-word-paradigm\temp","3286","123553","553057","460","553057","733","123553","552982","561251","NA","559166","684","554091","553018","552747","NA","555166","125911","553006","507","experiment-visual-word-paradigm","561222.0","played","1705","wolf.mp4","1920"
"63_meditation.ogg","white","legacy","True","C:\Users\yarbus\Desktop\Team Cat\visual-word-paradigm\temp","legacy","legacy","static","C:\Users\yarbus\Desktop\Team Cat\visual-word-paradigm\config.yml","0","0","37","0","37","0","0","37","37","0","37","0","37","37","37","0","37","0","37","0","32.40293375606592","50","Sat Jul 13 15:06:23 2024","20","The main experiment item","False","4748.000144958496","125910","pygame-experiment-visual-world-paradigm.osexp","C:\Users\yarbus\Desktop\Team Cat\visual-word-paradigm","black","0","0","medium-open","1000","False","mono","False","32","no","black","no","yes","1080","63","Look at the screen and listen carefully. press any key to continue","True","mono","black","32","None","None","c","legacy","-1","chicken","37","37","yoga class","C:/Users/yarbus/Desktop/Team Cat/visual-word-paradigm/trials/subject-10.csv","2000","legacy","Melodramatic Milgram","4.0.13","False","mono","black","32","None","380","Pause. Look at the fixation dot in order to continue.","30000","-480","480","-480","480","270","270","-270","-270","1000","0","2","legacy","During yoga class, the girl practised meditation. ","500","1024","2","4.248000144958496","48000","-16","C:\Users\yarbus\AppData\Local\Temp\tmp4v2df3pk.opensesame_pool\63_meditation.ogg","barbecue","meditation","mitten","bookshelf","barbecue","meditation","mitten","bookshelf","experiment","meditation","10","even","3105","BR","568440.0","C:\Users\yarbus\Desktop\Team Cat\visual-word-paradigm\temp","3286","123553","561493","460","561493","733","123553","561442","570505","NA","568400","684","562536","561467","561263","NA","563587","125911","561465","507","experiment-visual-word-paradigm","570440.0","practised","2119","wolf.mp4","1920"
"61_cellphone.ogg","white","legacy","True","C:\Users\yarbus\Desktop\Team Cat\visual-word-paradigm\temp","legacy","legacy","static","C:\Users\yarbus\Desktop\Team Cat\visual-word-paradigm\config.yml","0","0","38","0","38","0","0","38","38","0","38","0","38","38","38","0","38","0","38","0","15.51858038868249","50","Sat Jul 13 15:06:23 2024","20","The main experiment item","False","4868.000030517578","125910","pygame-experiment-visual-world-paradigm.osexp","C:\Users\yarbus\Desktop\Team Cat\visual-word-paradigm","black","0","0","medium-open","1000","False","mono","False","32","no","black","no","yes","1080","61","Look at the screen and listen carefully. press any key to continue","True","mono","black","32","None","None","c","legacy","-1","chicken","38","38","cinema","C:/Users/yarbus/Desktop/Team Cat/visual-word-paradigm/trials/subject-10.csv","2000","legacy","Melodramatic Milgram","4.0.13","False","mono","black","32","None","380","Pause. Look at the fixation dot in order to continue.","30000","-480","480","-480","480","270","270","-270","-270","1000","0","2","legacy","In the cinema, the girl turned off her cellphone.","500","1024","2","4.368000030517578","48000","-16","C:\Users\yarbus\AppData\Local\Temp\tmp4v2df3pk.opensesame_pool\61_cellphone.ogg","documents","cellphone","badminton","bathtub","documents","cellphone","badminton","bathtub","experiment","cellphone","10","even","2297","BR","577819.0","C:\Users\yarbus\Desktop\Team Cat\visual-word-paradigm\temp","3286","123553","570768","460","570768","733","123553","570701","579819","NA","577785","684","571809","570737","570517","NA","572857","125911","570725","507","experiment-visual-word-paradigm","579819.0","turned off","1473","wolf.mp4","1920"
"58_fish.ogg","white","legacy","True","C:\Users\yarbus\Desktop\Team Cat\visual-word-paradigm\temp","legacy","legacy","static","C:\Users\yarbus\Desktop\Team Cat\visual-word-paradigm\config.yml","0","0","39","0","39","0","0","39","39","0","39","0","39","39","39","0","39","0","39","0","37.405357530706766","50","Sat Jul 13 15:06:23 2024","20","The main experiment item","False","3691.999912261963","125910","pygame-experiment-visual-world-paradigm.osexp","C:\Users\yarbus\Desktop\Team Cat\visual-word-paradigm","black","0","0","medium-open","1000","False","mono","False","32","no","black","no","yes","1080","58","Look at the screen and listen carefully. press any key to continue","True","mono","black","32","None","None","c","legacy","-1","chicken","39","39","lake","C:/Users/yarbus/Desktop/Team Cat/visual-word-paradigm/trials/subject-10.csv","2000","legacy","Melodramatic Milgram","4.0.13","False","mono","black","32","None","380","Pause. Look at the fixation dot in order to continue.","30000","-480","480","-480","480","270","270","-270","-270","1000","0","2","legacy","At the lake, the girl caught a big fish.","500","1024","2","3.191999912261963","48000","-16","C:\Users\yarbus\AppData\Local\Temp\tmp4v2df3pk.opensesame_pool\58_fish.ogg","blood","fish","boxtruck","mouse","blood","fish","boxtruck","mouse","experiment","fish","10","even","2396","BR","585922.0","C:\Users\yarbus\Desktop\Team Cat\visual-word-paradigm\temp","3286","123553","580011","460","580012","733","123553","579952","588458","NA","585869","684","581061","579978","579821","NA","582125","125911","579977","507","experiment-visual-word-paradigm","587922.0","caught","1467","wolf.mp4","1920"
"25_dishes.ogg","white","legacy","True","C:\Users\yarbus\Desktop\Team Cat\visual-word-paradigm\temp","legacy","legacy","motion","C:\Users\yarbus\Desktop\Team Cat\visual-word-paradigm\config.yml","0","0","40","0","40","0","0","40","40","0","40","0","40","40","40","0","40","0","40","0","9.794143956467046","50","Sat Jul 13 15:06:23 2024","20","The main experiment item","False","3691.999912261963","125910","pygame-experiment-visual-world-paradigm.osexp","C:\Users\yarbus\Desktop\Team Cat\visual-word-paradigm","black","0","0","medium-open","1000","False","mono","False","32","no","black","no","yes","1080","25","Look at the screen and listen carefully. press any key to continue","True","mono","black","32","None","None","c","legacy","-1","chicken","40","40","kitchen","C:/Users/yarbus/Desktop/Team Cat/visual-word-paradigm/trials/subject-10.csv","2000","legacy","Melodramatic Milgram","4.0.13","False","mono","black","32","None","380","Pause. Look at the fixation dot in order to continue.","30000","-480","480","-480","480","270","270","-270","-270","1000","0","2","legacy","In the kitchen, the girl washed dishes.","500","1024","2","3.191999912261963","48000","-16","C:\Users\yarbus\AppData\Local\Temp\tmp4v2df3pk.opensesame_pool\25_dishes.ogg","pacifier","seashells","cigarette","dishes","pacifier","seashells","cigarette","dishes","experiment","dishes","10","even","2151","TR","594742.0","C:\Users\yarbus\Desktop\Team Cat\visual-word-paradigm\temp","3286","123553","588772","460","588772","733","123553","588697","596742","NA","594679","684","589809","588742","588461","NA","590888","125911","588725","507","experiment-visual-word-paradigm","596742.0","washed","1440","wolf.mp4","1920"
"32_flowers.ogg","white","legacy","True","C:\Users\yarbus\Desktop\Team Cat\visual-word-paradigm\temp","legacy","legacy","motion","C:\Users\yarbus\Desktop\Team Cat\visual-word-paradigm\config.yml","0","0","41","0","41","0","0","41","41","0","41","0","41","41","41","0","41","0","41","0","42.52566068058201","50","Sat Jul 13 15:06:23 2024","20","The main experiment item","False","3691.999912261963","125910","pygame-experiment-visual-world-paradigm.osexp","C:\Users\yarbus\Desktop\Team Cat\visual-word-paradigm","black","0","0","medium-open","1000","False","mono","False","32","no","black","no","yes","1080","32","Look at the screen and listen carefully. press any key to continue","True","mono","black","32","None","None","c","legacy","-1","chicken","41","41","garden","C:/Users/yarbus/Desktop/Team Cat/visual-word-paradigm/trials/subject-10.csv","2000","legacy","Melodramatic Milgram","4.0.13","False","mono","black","32","None","380","Pause. Look at the fixation dot in order to continue.","30000","-480","480","-480","480","270","270","-270","-270","1000","0","2","legacy","In the garden, the girl planted flowers.","500","1024","2","3.191999912261963","48000","-16","C:\Users\yarbus\AppData\Local\Temp\tmp4v2df3pk.opensesame_pool\32_flowers.ogg","nailclipper","beer","baggage","flowers","nailclipper","beer","baggage","flowers","experiment","flowers","10","even","2155","TR","602956.0","C:\Users\yarbus\Desktop\Team Cat\visual-word-paradigm\temp","3286","123553","596988","460","596988","733","123553","596926","605013","NA","602913","684","598031","596951","596743","NA","599115","125911","596949","507","experiment-visual-word-paradigm","604956.0","planted","1771","wolf.mp4","1920"
"36_marathon.ogg","white","legacy","True","C:\Users\yarbus\Desktop\Team Cat\visual-word-paradigm\temp","legacy","legacy","static","C:\Users\yarbus\Desktop\Team Cat\visual-word-paradigm\config.yml","0","0","42","0","42","0","0","42","42","0","42","0","42","42","42","0","42","0","42","0","47.594354208036044","50","Sat Jul 13 15:06:23 2024","20","The main experiment item","False","3835.9999656677246","125910","pygame-experiment-visual-world-paradigm.osexp","C:\Users\yarbus\Desktop\Team Cat\visual-word-paradigm","black","0","0","medium-open","1000","False","mono","False","32","no","black","no","yes","1080","36","Look at the screen and listen carefully. press any key to continue","True","mono","black","32","None","None","c","legacy","-1","chicken","42","42","stadium","C:/Users/yarbus/Desktop/Team Cat/visual-word-paradigm/trials/subject-10.csv","2000","legacy","Melodramatic Milgram","4.0.13","False","mono","black","32","None","380","Pause. Look at the fixation dot in order to continue.","30000","-480","480","-480","480","270","270","-270","-270","1000","0","2","legacy","At the stadium, the girl ran a marathon.","500","1024","2","3.3359999656677246","48000","-16","C:\Users\yarbus\AppData\Local\Temp\tmp4v2df3pk.opensesame_pool\36_marathon.ogg","marathon","dishes","mouse","bust","marathon","dishes","mouse","bust","experiment","marathon","10","even","2382","BL","611356.0","C:\Users\yarbus\Desktop\Team Cat\visual-word-paradigm\temp","3286","123553","605278","460","605278","733","123553","605203","613356","NA","611306","684","606325","605245","605015","NA","607392","125911","605226","507","experiment-visual-word-paradigm","613356.0","ran","1389","wolf.mp4","1920"
"17_sofa.ogg","white","legacy","True","C:\Users\yarbus\Desktop\Team Cat\visual-word-paradigm\temp","legacy","legacy","motion","C:\Users\yarbus\Desktop\Team Cat\visual-word-paradigm\config.yml","0","0","43","0","43","0","0","43","43","0","43","0","43","43","43","0","43","0","43","0","45.869425110851374","50","Sat Jul 13 15:06:23 2024","20","The main experiment item","False","3956.0000896453857","125910","pygame-experiment-visual-world-paradigm.osexp","C:\Users\yarbus\Desktop\Team Cat\visual-word-paradigm","black","0","0","medium-open","1000","False","mono","False","32","no","black","no","yes","1080","17","Look at the screen and listen carefully. press any key to continue","True","mono","black","32","None","None","c","legacy","-1","chicken","43","43","living room","C:/Users/yarbus/Desktop/Team Cat/visual-word-paradigm/trials/subject-10.csv","2000","legacy","Melodramatic Milgram","4.0.13","False","mono","black","32","None","380","Pause. Look at the fixation dot in order to continue.","30000","-480","480","-480","480","270","270","-270","-270","1000","0","2","legacy","In the living room, the girl sat on a sofa. ","500","1024","2","3.4560000896453857","48000","-16","C:\Users\yarbus\AppData\Local\Temp\tmp4v2df3pk.opensesame_pool\17_sofa.ogg","kite","egg","pencilsharpener","sofa","kite","egg","pencilsharpener","sofa","experiment","sofa","10","even","2636","TR","619808.0","C:\Users\yarbus\Desktop\Team Cat\visual-word-paradigm\temp","3286","123553","613603","460","613603","733","123553","613532","622372","NA","619766","684","614648","613567","613359","NA","615741","125911","613555","507","experiment-visual-word-paradigm","621808.0","sat","1619","wolf.mp4","1920"
"35_soccermatch.ogg","white","legacy","True","C:\Users\yarbus\Desktop\Team Cat\visual-word-paradigm\temp","legacy","legacy","static","C:\Users\yarbus\Desktop\Team Cat\visual-word-paradigm\config.yml","0","0","44","0","44","0","0","44","44","0","44","0","44","44","44","0","44","0","44","0","45.30808311460554","50","Sat Jul 13 15:06:23 2024","20","The main experiment item","False","4292.00005531311","125910","pygame-experiment-visual-world-paradigm.osexp","C:\Users\yarbus\Desktop\Team Cat\visual-word-paradigm","black","0","0","medium-open","1000","False","mono","False","32","no","black","no","yes","1080","35","Look at the screen and listen carefully. press any key to continue","True","mono","black","32","None","None","c","legacy","-1","chicken","44","44","stadium","C:/Users/yarbus/Desktop/Team Cat/visual-word-paradigm/trials/subject-10.csv","2000","legacy","Melodramatic Milgram","4.0.13","False","mono","black","32","None","380","Pause. Look at the fixation dot in order to continue.","30000","-480","480","-480","480","270","270","-270","-270","1000","0","2","legacy","At the stadium, the girl watched a soccer match.","500","1024","2","3.7920000553131104","48000","-16","C:\Users\yarbus\AppData\Local\Temp\tmp4v2df3pk.opensesame_pool\35_soccermatch.ogg","soccer","parkfountain","bottlecap","nintendods","soccer","parkfountain","bottlecap","nintendods","experiment","soccer","10","even","2580","BL","629162.0","C:\Users\yarbus\Desktop\Team Cat\visual-word-paradigm\temp","3286","123553","622668","460","622668","733","123553","622594","631162","NA","629113","684","623711","622632","622384","NA","624769","125911","622617","507","experiment-visual-word-paradigm","631162.0","watched","1652","wolf.mp4","1920"
"06_croissant.ogg","white","legacy","True","C:\Users\yarbus\Desktop\Team Cat\visual-word-paradigm\temp","legacy","legacy","motion","C:\Users\yarbus\Desktop\Team Cat\visual-word-paradigm\config.yml","0","0","45","0","45","0","0","45","45","0","45","0","45","45","45","0","45","0","45","0","43.68261185048347","50","Sat Jul 13 15:06:23 2024","20","The main experiment item","False","4075.999975204468","125910","pygame-experiment-visual-world-paradigm.osexp","C:\Users\yarbus\Desktop\Team Cat\visual-word-paradigm","black","0","0","medium-open","1000","False","mono","False","32","no","black","no","yes","1080","6","Look at the screen and listen carefully. press any key to continue","True","mono","black","32","None","None","c","legacy","-1","chicken","45","45","breakfast","C:/Users/yarbus/Desktop/Team Cat/visual-word-paradigm/trials/subject-10.csv","2000","legacy","Melodramatic Milgram","4.0.13","False","mono","black","32","None","380","Pause. Look at the fixation dot in order to continue.","30000","-480","480","-480","480","270","270","-270","-270","1000","0","2","legacy","At breakfast, the girl ate a croissant. ","500","1024","2","3.5759999752044678","48000","-16","C:\Users\yarbus\AppData\Local\Temp\tmp4v2df3pk.opensesame_pool\06_croissant.ogg","dance","makeup","croissant","duck","dance","makeup","croissant","duck","experiment","croissant","10","even","2576","TL","637668.0","C:\Users\yarbus\Desktop\Team Cat\visual-word-paradigm\temp","3286","123553","631375","460","631375","733","123553","631329","640032","NA","637629","684","632405","631353","631174","NA","633486","125911","631352","507","experiment-visual-word-paradigm","639668.0","ate","1876","wolf.mp4","1920"
"09_cello.ogg","white","legacy","True","C:\Users\yarbus\Desktop\Team Cat\visual-word-paradigm\temp","legacy","legacy","motion","C:\Users\yarbus\Desktop\Team Cat\visual-word-paradigm\config.yml","0","0","46","0","46","0","0","46","46","0","46","0","46","46","46","0","46","0","46","0","38.662547533239405","50","Sat Jul 13 15:06:23 2024","20","The main experiment item","False","4052.000045776367","125910","pygame-experiment-visual-world-paradigm.osexp","C:\Users\yarbus\Desktop\Team Cat\visual-word-paradigm","black","0","0","medium-open","1000","False","mono","False","32","no","black","no","yes","1080","9","Look at the screen and listen carefully. press any key to continue","True","mono","black","32","None","None","c","legacy","-1","chicken","46","46","musical class","C:/Users/yarbus/Desktop/Team Cat/visual-word-paradigm/trials/subject-10.csv","2000","legacy","Melodramatic Milgram","4.0.13","False","mono","black","32","None","380","Pause. Look at the fixation dot in order to continue.","30000","-480","480","-480","480","270","270","-270","-270","1000","0","2","legacy","During musical class, the girl played the cello. ","500","1024","2","3.552000045776367","48000","-16","C:\Users\yarbus\AppData\Local\Temp\tmp4v2df3pk.opensesame_pool\09_cello.ogg","soccer","brick","cello","pencilsharpener","soccer","brick","cello","pencilsharpener","experiment","cello","10","even","2260","TL","646681.0","C:\Users\yarbus\Desktop\Team Cat\visual-word-paradigm\temp","3286","123553","640314","460","640314","733","123553","640252","649066","NA","646623","684","641353","640284","640045","NA","642448","125911","640275","507","experiment-visual-word-paradigm","648681.0","played","1856","wolf.mp4","1920"
"08_letter.ogg","white","legacy","True","C:\Users\yarbus\Desktop\Team Cat\visual-word-paradigm\temp","legacy","legacy","motion","C:\Users\yarbus\Desktop\Team Cat\visual-word-paradigm\config.yml","0","0","47","0","47","0","0","47","47","0","47","0","47","47","47","0","47","0","47","0","35.26540892149129","50","Sat Jul 13 15:06:23 2024","20","The main experiment item","False","3740.000009536743","125910","pygame-experiment-visual-world-paradigm.osexp","C:\Users\yarbus\Desktop\Team Cat\visual-word-paradigm","black","0","0","medium-open","1000","False","mono","False","32","no","black","no","yes","1080","8","Look at the screen and listen carefully. press any key to continue","True","mono","black","32","None","None","c","legacy","-1","chicken","47","47","desk","C:/Users/yarbus/Desktop/Team Cat/visual-word-paradigm/trials/subject-10.csv","2000","legacy","Melodramatic Milgram","4.0.13","False","mono","black","32","None","380","Pause. Look at the fixation dot in order to continue.","30000","-480","480","-480","480","270","270","-270","-270","1000","0","2","legacy","At her desk, the girl wrote a letter.","500","1024","2","3.240000009536743","48000","-16","C:\Users\yarbus\AppData\Local\Temp\tmp4v2df3pk.opensesame_pool\08_letter.ogg","meditation","bracelet","letter","cactus","meditation","bracelet","letter","cactus","experiment","letter","10","even","2530","TL","655326.0","C:\Users\yarbus\Desktop\Team Cat\visual-word-paradigm\temp","3286","123553","649365","460","649365","733","123553","649296","657326","NA","655272","684","650408","649330","649079","NA","651473","125911","649319","507","experiment-visual-word-paradigm","657326.0","wrote","1550","wolf.mp4","1920"
"01_apple.ogg","white","legacy","True","C:\Users\yarbus\Desktop\Team Cat\visual-word-paradigm\temp","legacy","legacy","motion","C:\Users\yarbus\Desktop\Team Cat\visual-word-paradigm\config.yml","0","0","48","0","48","0","0","48","48","0","48","0","48","48","48","0","48","0","48","0","25.78200466371846","50","Sat Jul 13 15:06:23 2024","20","The main experiment item","False","3835.9999656677246","125910","pygame-experiment-visual-world-paradigm.osexp","C:\Users\yarbus\Desktop\Team Cat\visual-word-paradigm","black","0","0","medium-open","1000","False","mono","False","32","no","black","no","yes","1080","1","Look at the screen and listen carefully. press any key to continue","True","mono","black","32","None","None","c","legacy","-1","chicken","48","48","breakfast","C:/Users/yarbus/Desktop/Team Cat/visual-word-paradigm/trials/subject-10.csv","2000","legacy","Melodramatic Milgram","4.0.13","False","mono","black","32","None","380","Pause. Look at the fixation dot in order to continue.","30000","-480","480","-480","480","270","270","-270","-270","1000","0","2","legacy"," At breakfast, I usually eat an apple.","500","1024","2","3.3359999656677246","48000","-16","C:\Users\yarbus\AppData\Local\Temp\tmp4v2df3pk.opensesame_pool\01_apple.ogg","pool","wolf","apple","archery","pool","wolf","apple","archery","experiment","apple","10","even","2696","TL","663754.0","C:\Users\yarbus\Desktop\Team Cat\visual-word-paradigm\temp","3286","123553","657555","460","657555","733","123553","657490","665754","NA","663703","684","658600","657521","657339","NA","659766","125911","657513","507","experiment-visual-word-paradigm","665754.0","eat","1657","wolf.mp4","1920"
"28_rollercoaster.ogg","white","legacy","True","C:\Users\yarbus\Desktop\Team Cat\visual-word-paradigm\temp","legacy","legacy","motion","C:\Users\yarbus\Desktop\Team Cat\visual-word-paradigm\config.yml","0","0","49","0","49","0","0","49","49","0","49","0","49","49","49","0","49","0","49","0","48.1239631435317","50","Sat Jul 13 15:06:23 2024","20","The main experiment item","False","4292.00005531311","125910","pygame-experiment-visual-world-paradigm.osexp","C:\Users\yarbus\Desktop\Team Cat\visual-word-paradigm","black","0","0","medium-open","1000","False","mono","False","32","no","black","no","yes","1080","28","Look at the screen and listen carefully. press any key to continue","True","mono","black","32","None","None","c","legacy","-1","chicken","49","49","carnival","C:/Users/yarbus/Desktop/Team Cat/visual-word-paradigm/trials/subject-10.csv","2000","legacy","Melodramatic Milgram","4.0.13","False","mono","black","32","None","380","Pause. Look at the fixation dot in order to continue.","30000","-480","480","-480","480","270","270","-270","-270","1000","0","2","legacy","At the carnival, the girl rode a roller coaster.","500","1024","2","3.7920000553131104","48000","-16","C:\Users\yarbus\AppData\Local\Temp\tmp4v2df3pk.opensesame_pool\28_rollercoaster.ogg","picnic","bust","videogame","rollercoaster","picnic","bust","videogame","rollercoaster","experiment","rollercoaster","10","even","2229","TR","672587.0","C:\Users\yarbus\Desktop\Team Cat\visual-word-paradigm\temp","3286","123553","666007","460","666007","733","123553","665945","674906","NA","672545","684","667047","665968","665767","NA","668141","125911","665968","507","experiment-visual-word-paradigm","674587.0","rode","1651","wolf.mp4","1920"
"23_novel.ogg","white","legacy","True","C:\Users\yarbus\Desktop\Team Cat\visual-word-paradigm\temp","legacy","legacy","motion","C:\Users\yarbus\Desktop\Team Cat\visual-word-paradigm\config.yml","0","0","50","0","50","0","0","50","50","0","50","0","50","50","50","0","50","0","50","0","43.91377477193236","50","Sat Jul 13 15:06:23 2024","20","The main experiment item","False","3523.9999294281006","125910","pygame-experiment-visual-world-paradigm.osexp","C:\Users\yarbus\Desktop\Team Cat\visual-word-paradigm","black","0","0","medium-open","1000","False","mono","False","32","no","black","no","yes","1080","23","Look at the screen and listen carefully. press any key to continue","True","mono","black","32","None","None","c","legacy","-1","chicken","50","50","library","C:/Users/yarbus/Desktop/Team Cat/visual-word-paradigm/trials/subject-10.csv","2000","legacy","Melodramatic Milgram","4.0.13","False","mono","black","32","None","380","Pause. Look at the fixation dot in order to continue.","30000","-480","480","-480","480","270","270","-270","-270","1000","0","2","legacy","In the library, the girl read a novel.","500","1024","2","3.0239999294281006","48000","-16","C:\Users\yarbus\AppData\Local\Temp\tmp4v2df3pk.opensesame_pool\23_novel.ogg","guitar","bracelet","marshmallow","novel","guitar","bracelet","marshmallow","novel","experiment","novel","10","even","2220","TR","681082.0","C:\Users\yarbus\Desktop\Team Cat\visual-word-paradigm\temp","3286","123553","675222","460","675222","733","123553","675127","683082","NA","681039","684","676261","675188","674919","NA","677397","125911","675167","507","experiment-visual-word-paradigm","683082.0","read","1595","wolf.mp4","1920"
"30_cottoncandy.ogg","white","legacy","True","C:\Users\yarbus\Desktop\Team Cat\visual-word-paradigm\temp","legacy","legacy","motion","C:\Users\yarbus\Desktop\Team Cat\visual-word-paradigm\config.yml","0","0","51","0","51","0","0","51","51","0","51","0","51","51","51","0","51","0","51","0","20.56616788806314","50","Sat Jul 13 15:06:23 2024","20","The main experiment item","False","4028.0001163482666","125910","pygame-experiment-visual-world-paradigm.osexp","C:\Users\yarbus\Desktop\Team Cat\visual-word-paradigm","black","0","0","medium-open","1000","False","mono","False","32","no","black","no","yes","1080","30","Look at the screen and listen carefully. press any key to continue","True","mono","black","32","None","None","c","legacy","-1","chicken","51","51","carnival","C:/Users/yarbus/Desktop/Team Cat/visual-word-paradigm/trials/subject-10.csv","2000","legacy","Melodramatic Milgram","4.0.13","False","mono","black","32","None","380","Pause. Look at the fixation dot in order to continue.","30000","-480","480","-480","480","270","270","-270","-270","1000","0","2","legacy","At the carnival, the girl ate cotton candy.","500","1024","2","3.5280001163482666","48000","-16","C:\Users\yarbus\AppData\Local\Temp\tmp4v2df3pk.opensesame_pool\30_cottoncandy.ogg","badminton","armchair","boxingglove","cottoncandy","badminton","armchair","boxingglove","cottoncandy","experiment","cottoncandy","10","even","2400","TR","689537.0","C:\Users\yarbus\Desktop\Team Cat\visual-word-paradigm\temp","3286","123553","683291","460","683291","733","123553","683231","691581","NA","689500","684","684334","683263","683095","NA","685399","125911","683254","507","experiment-visual-word-paradigm","691537.0","ate","1970","wolf.mp4","1920"
"33_movie.ogg","white","legacy","True","C:\Users\yarbus\Desktop\Team Cat\visual-word-paradigm\temp","legacy","legacy","static","C:\Users\yarbus\Desktop\Team Cat\visual-word-paradigm\config.yml","0","0","52","0","52","0","0","52","52","0","52","0","52","52","52","0","52","0","52","0","43.78170082945614","50","Sat Jul 13 15:06:23 2024","20","The main experiment item","False","4220.0000286102295","125910","pygame-experiment-visual-world-paradigm.osexp","C:\Users\yarbus\Desktop\Team Cat\visual-word-paradigm","black","0","0","medium-open","1000","False","mono","False","32","no","black","no","yes","1080","33","Look at the screen and listen carefully. press any key to continue","True","mono","black","32","None","None","c","legacy","-1","chicken","52","52","cinema","C:/Users/yarbus/Desktop/Team Cat/visual-word-paradigm/trials/subject-10.csv","2000","legacy","Melodramatic Milgram","4.0.13","False","mono","black","32","None","380","Pause. Look at the fixation dot in order to continue.","30000","-480","480","-480","480","270","270","-270","-270","1000","0","2","legacy","At the cinema, the girl watched a movie.","500","1024","2","3.7200000286102295","48000","-16","C:\Users\yarbus\AppData\Local\Temp\tmp4v2df3pk.opensesame_pool\33_movie.ogg","movie","button","pants","battleship","movie","button","pants","battleship","experiment","movie","10","even","2212","BL","698259.0","C:\Users\yarbus\Desktop\Team Cat\visual-word-paradigm\temp","3286","123553","691817","460","691817","733","123553","691748","700259","NA","698202","684","692863","691786","691584","NA","693923","125911","691771","507","experiment-visual-word-paradigm","700259.0","watched","1562","wolf.mp4","1920"
"50_cactus.ogg","white","legacy","True","C:\Users\yarbus\Desktop\Team Cat\visual-word-paradigm\temp","legacy","legacy","static","C:\Users\yarbus\Desktop\Team Cat\visual-word-paradigm\config.yml","0","0","53","0","53","0","0","53","53","0","53","0","53","53","53","0","53","0","53","0","26.493852086852172","50","Sat Jul 13 15:06:23 2024","20","The main experiment item","False","5179.999828338623","125910","pygame-experiment-visual-world-paradigm.osexp","C:\Users\yarbus\Desktop\Team Cat\visual-word-paradigm","black","0","0","medium-open","1000","False","mono","False","32","no","black","no","yes","1080","50","Look at the screen and listen carefully. press any key to continue","True","mono","black","32","None","None","c","legacy","-1","chicken","53","53","botanical garden","C:/Users/yarbus/Desktop/Team Cat/visual-word-paradigm/trials/subject-10.csv","2000","legacy","Melodramatic Milgram","4.0.13","False","mono","black","32","None","380","Pause. Look at the fixation dot in order to continue.","30000","-480","480","-480","480","270","270","-270","-270","1000","0","2","legacy","In the botanical garden, the girl got stung by a cactus.","500","1024","2","4.679999828338623","48000","-16","C:\Users\yarbus\AppData\Local\Temp\tmp4v2df3pk.opensesame_pool\50_cactus.ogg","card","cactus","bear","pacifier","card","cactus","bear","pacifier","experiment","cactus","10","even","3287","BR","707878.0","C:\Users\yarbus\Desktop\Team Cat\visual-word-paradigm\temp","3286","123553","700491","460","700491","733","123553","700436","709878","NA","707835","684","701531","700465","700272","NA","702589","125911","700463","507","experiment-visual-word-paradigm","709878.0","stung","2326","wolf.mp4","1920"
"12_egg.ogg","white","legacy","True","C:\Users\yarbus\Desktop\Team Cat\visual-word-paradigm\temp","legacy","legacy","motion","C:\Users\yarbus\Desktop\Team Cat\visual-word-paradigm\config.yml","0","0","54","0","54","0","0","54","54","0","54","0","54","54","54","0","54","0","54","0","25.679754615650083","50","Sat Jul 13 15:06:23 2024","20","The main experiment item","False","3763.9999389648438","125910","pygame-experiment-visual-world-paradigm.osexp","C:\Users\yarbus\Desktop\Team Cat\visual-word-paradigm","black","0","0","medium-open","1000","False","mono","False","32","no","black","no","yes","1080","12","Look at the screen and listen carefully. press any key to continue","True","mono","black","32","None","None","c","legacy","-1","chicken","54","54","farm","C:/Users/yarbus/Desktop/Team Cat/visual-word-paradigm/trials/subject-10.csv","2000","legacy","Melodramatic Milgram","4.0.13","False","mono","black","32","None","380","Pause. Look at the fixation dot in order to continue.","30000","-480","480","-480","480","270","270","-270","-270","1000","0","2","legacy","At the farm, the girl picked the egg. ","500","1024","2","3.2639999389648438","48000","-16","C:\Users\yarbus\AppData\Local\Temp\tmp4v2df3pk.opensesame_pool\12_egg.ogg","battery","videogame","egg","oven","battery","videogame","egg","oven","experiment","egg","10","even","2263","TL","716186.0","C:\Users\yarbus\Desktop\Team Cat\visual-word-paradigm\temp","3286","123553","710131","460","710131","733","123553","710055","718186","NA","716139","684","711172","710094","709891","NA","712304","125911","710078","507","experiment-visual-word-paradigm","718186.0","picked","1380","wolf.mp4","1920"
"42_bicycle.ogg","white","legacy","True","C:\Users\yarbus\Desktop\Team Cat\visual-word-paradigm\temp","legacy","legacy","static","C:\Users\yarbus\Desktop\Team Cat\visual-word-paradigm\config.yml","0","0","55","0","55","0","0","55","55","0","55","0","55","55","55","0","55","0","55","0","48.65585205502009","50","Sat Jul 13 15:06:23 2024","20","The main experiment item","False","4292.00005531311","125910","pygame-experiment-visual-world-paradigm.osexp","C:\Users\yarbus\Desktop\Team Cat\visual-word-paradigm","black","0","0","medium-open","1000","False","mono","False","32","no","black","no","yes","1080","42","Look at the screen and listen carefully. press any key to continue","True","mono","black","32","None","None","c","legacy","-1","chicken","55","55","garage","C:/Users/yarbus/Desktop/Team Cat/visual-word-paradigm/trials/subject-10.csv","2000","legacy","Melodramatic Milgram","4.0.13","False","mono","black","32","None","380","Pause. Look at the fixation dot in order to continue.","30000","-480","480","-480","480","270","270","-270","-270","1000","0","2","legacy","In the garage, the girl fixed her bicycle.","500","1024","2","3.7920000553131104","48000","-16","C:\Users\yarbus\AppData\Local\Temp\tmp4v2df3pk.opensesame_pool\42_bicycle.ogg","bicycle","clothes","patioumbrella","card","bicycle","clothes","patioumbrella","card","experiment","bicycle","10","even","2516","BL","724933.0","C:\Users\yarbus\Desktop\Team Cat\visual-word-paradigm\temp","3286","123553","718438","460","718438","733","123553","718384","727019","NA","724890","684","719482","718409","718187","NA","720545","125911","718408","507","experiment-visual-word-paradigm","726933.0","fixed","1627","wolf.mp4","1920"
"54_cd.ogg","white","legacy","True","C:\Users\yarbus\Desktop\Team Cat\visual-word-paradigm\temp","legacy","legacy","static","C:\Users\yarbus\Desktop\Team Cat\visual-word-paradigm\config.yml","0","0","56","0","56","0","0","56","56","0","56","0","56","56","56","0","56","0","56","0","38.605008255406396","50","Sat Jul 13 15:06:23 2024","20","The main experiment item","False","4099.999904632568","125910","pygame-experiment-visual-world-paradigm.osexp","C:\Users\yarbus\Desktop\Team Cat\visual-word-paradigm","black","0","0","medium-open","1000","False","mono","False","32","no","black","no","yes","1080","54","Look at the screen and listen carefully. press any key to continue","True","mono","black","32","None","None","c","legacy","-1","chicken","56","56","car","C:/Users/yarbus/Desktop/Team Cat/visual-word-paradigm/trials/subject-10.csv","2000","legacy","Melodramatic Milgram","4.0.13","False","mono","black","32","None","380","Pause. Look at the fixation dot in order to continue.","30000","-480","480","-480","480","270","270","-270","-270","1000","0","2","legacy","In the car, the girl listened to a CD.","500","1024","2","3.5999999046325684","48000","-16","C:\Users\yarbus\AppData\Local\Temp\tmp4v2df3pk.opensesame_pool\54_cd.ogg","moon","cd","ceilingfan","brick","moon","cd","ceilingfan","brick","experiment","cd","10","even","2643","BR","733600.0","C:\Users\yarbus\Desktop\Team Cat\visual-word-paradigm\temp","3286","123553","727273","460","727273","733","123553","727203","735637","NA","733536","684","728313","727241","727021","NA","729369","125911","727230","507","experiment-visual-word-paradigm","735600.0","listened","1529","wolf.mp4","1920"
