"audio","background","canvas_backend","central_fixation","cfg_temp_dir","clock_backend","color_backend","condition","config_path","count_calibration_pygaze_init","count_check_group_selection","count_define_logging","count_experiment","count_fixation","count_instruction_screen","count_latin_square_group_select","count_logsleep","count_new_logger","count_outro_screen","count_pause","count_preprocess_videos","count_preview","count_pygaze_start_recording","count_pygaze_stop_recording","count_readme","count_sentence","count_trial_loop","count_trial_sequence","count_utils","d","d_to_continue","datetime","delay_logsleep","description","disable_garbage_collection","duration","end_time","experiment_file","experiment_path","fixdot_color","fixdot_posx","fixdot_posy","fixdot_style","fixtime","font_bold","font_family","font_italic","font_size","font_underline","foreground","form_clicks","fullscreen","height","index","inst","inst_cnt","inst_font","inst_font_col","inst_font_size","inst_posx","inst_posy","key","keyboard_backend","latin_group","latin_group_name","live_row","live_row_trial_loop","location_cue","logfile","minpause","mouse_backend","opensesame_codename","opensesame_version","pause_cntr","pause_font","pause_font_col","pause_font_size","pause_posx","pause_posy","pause_text","pausetimeout","posx_sstimBL","posx_sstimBR","posx_sstimTL","posx_sstimTR","posy_sstimBL","posy_sstimBR","posy_sstimTL","posy_sstimTR","prevtime","repeat_cycle","round_decimals","sampler_backend","sentence","sentenceoffset","sound_buf_size","sound_channels","sound_duration_ms","sound_freq","sound_sample_size","src","sstimBL","sstimBR","sstimTL","sstimTR","sstim_bl","sstim_br","sstim_tl","sstim_tr","start","stimulus_name","subject_nr","subject_parity","target_cue_timing","target_pos","tcur","temp_dir","time_calibration_pygaze_init","time_check_group_selection","time_define_logging","time_experiment","time_fixation","time_instruction_screen","time_latin_square_group_select","time_logsleep","time_new_logger","time_outro_screen","time_pause","time_preprocess_videos","time_preview","time_pygaze_start_recording","time_pygaze_stop_recording","time_readme","time_sentence","time_trial_loop","time_trial_sequence","time_utils","title","tmin","verb_cue","verb_cue_timing","video_file","width"
"09_cello.ogg","white","legacy","True","C:\Users\yarbus\Desktop\Team Cat\visual-word-paradigm\temp","legacy","legacy","static","C:\Users\yarbus\Desktop\Team Cat\visual-word-paradigm\config.yml","0","0","0","0","0","0","0","0","0","0","0","0","0","0","0","0","0","0","0","0","49.37688964201773","50","Fri Aug  9 14:34:52 2024","20","The main experiment item","False","4052.000045776367","131464","pygame-experiment-visual-world-paradigm.osexp","C:\Users\yarbus\Desktop\Team Cat\visual-word-paradigm","black","0","0","medium-open","1000","False","mono","False","32","no","black","no","yes","1080","9","Look at the screen and listen carefully. press any key to continue","True","mono","black","32","None","None","w","legacy","1","wolf","0","0","musical class","C:/Users/yarbus/Desktop/Team Cat/visual-word-paradigm/trials/subject-1.csv","2000","legacy","Melodramatic Milgram","4.0.13","False","mono","black","32","None","380","Pause. Look at the fixation dot in order to continue.","30000","-480","480","-480","480","270","270","-270","-270","1000","0","2","legacy","During musical class, the girl played the cello. ","500","1024","2","3.552000045776367","48000","-16","C:\Users\yarbus\AppData\Local\Temp\tmpg7y5i0u_.opensesame_pool\09_cello.ogg","soccer","brick","cello","pencilsharpener","soccer","brick","cello","pencilsharpener","experiment","cello","1","odd","2260","TL","140897.0","C:\Users\yarbus\Desktop\Team Cat\visual-word-paradigm\temp","6176","127419","134626","434","134626","596","127419","NA","148666","NA","140842","557","135658","131482","NA","NA","136722","131465","131471","471","experiment-visual-word-paradigm","142897.0","played","1856","wolf.mp4","1920"
"36_marathon.ogg","white","legacy","True","C:\Users\yarbus\Desktop\Team Cat\visual-word-paradigm\temp","legacy","legacy","motion","C:\Users\yarbus\Desktop\Team Cat\visual-word-paradigm\config.yml","0","0","1","0","1","0","0","1","1","0","1","0","1","1","1","0","1","0","1","0","43.763919385722254","50","Fri Aug  9 14:34:52 2024","20","The main experiment item","False","3835.9999656677246","131464","pygame-experiment-visual-world-paradigm.osexp","C:\Users\yarbus\Desktop\Team Cat\visual-word-paradigm","black","0","0","medium-open","1000","False","mono","False","32","no","black","no","yes","1080","36","Look at the screen and listen carefully. press any key to continue","True","mono","black","32","None","None","w","legacy","1","wolf","1","1","stadium","C:/Users/yarbus/Desktop/Team Cat/visual-word-paradigm/trials/subject-1.csv","2000","legacy","Melodramatic Milgram","4.0.13","False","mono","black","32","None","380","Pause. Look at the fixation dot in order to continue.","30000","-480","480","-480","480","270","270","-270","-270","1000","0","2","legacy","At the stadium, the girl ran a marathon.","500","1024","2","3.3359999656677246","48000","-16","C:\Users\yarbus\AppData\Local\Temp\tmpg7y5i0u_.opensesame_pool\36_marathon.ogg","marathon","dishes","mouse","bust","marathon","dishes","mouse","bust","experiment","marathon","1","odd","2382","BL","182579.0","C:\Users\yarbus\Desktop\Team Cat\visual-word-paradigm\temp","6176","127419","158500","434","158500","596","127419","149473","184707","NA","182529","557","168510","149497","148683","NA","178586","131465","149496","471","experiment-visual-word-paradigm","184579.0","ran","1389","wolf.mp4","1920"
"48_cigarette.ogg","white","legacy","True","C:\Users\yarbus\Desktop\Team Cat\visual-word-paradigm\temp","legacy","legacy","motion","C:\Users\yarbus\Desktop\Team Cat\visual-word-paradigm\config.yml","0","0","2","0","2","0","0","2","2","0","2","0","2","2","2","0","2","0","2","0","33.792175908633","50","Fri Aug  9 14:34:52 2024","20","The main experiment item","False","4003.999948501587","131464","pygame-experiment-visual-world-paradigm.osexp","C:\Users\yarbus\Desktop\Team Cat\visual-word-paradigm","black","0","0","medium-open","1000","False","mono","False","32","no","black","no","yes","1080","48","Look at the screen and listen carefully. press any key to continue","True","mono","black","32","None","None","w","legacy","1","wolf","2","2","terrace","C:/Users/yarbus/Desktop/Team Cat/visual-word-paradigm/trials/subject-1.csv","2000","legacy","Melodramatic Milgram","4.0.13","False","mono","black","32","None","380","Pause. Look at the fixation dot in order to continue.","30000","-480","480","-480","480","270","270","-270","-270","1000","0","2","legacy","On the terrace, the girl smoked a cigarette.","500","1024","2","3.503999948501587","48000","-16","C:\Users\yarbus\AppData\Local\Temp\tmpg7y5i0u_.opensesame_pool\48_cigarette.ogg","cigarette","bicycle","fishing","car","cigarette","bicycle","fishing","car","experiment","cigarette","1","odd","2273","BL","191282.0","C:\Users\yarbus\Desktop\Team Cat\visual-word-paradigm\temp","6176","127419","184982","434","184982","596","127419","184919","197941","NA","191229","557","186011","184950","184719","NA","187110","131465","184942","471","experiment-visual-word-paradigm","193282.0","smoked","1546","wolf.mp4","1920"
"19_sandcastle.ogg","white","legacy","True","C:\Users\yarbus\Desktop\Team Cat\visual-word-paradigm\temp","legacy","legacy","static","C:\Users\yarbus\Desktop\Team Cat\visual-word-paradigm\config.yml","0","0","3","0","3","0","0","3","3","0","3","0","3","3","3","0","3","0","3","0","46.72660164317539","50","Fri Aug  9 14:34:52 2024","20","The main experiment item","False","3476.0000705718994","131464","pygame-experiment-visual-world-paradigm.osexp","C:\Users\yarbus\Desktop\Team Cat\visual-word-paradigm","black","0","0","medium-open","1000","False","mono","False","32","no","black","no","yes","1080","19","Look at the screen and listen carefully. press any key to continue","True","mono","black","32","None","None","w","legacy","1","wolf","3","3","beach","C:/Users/yarbus/Desktop/Team Cat/visual-word-paradigm/trials/subject-1.csv","2000","legacy","Melodramatic Milgram","4.0.13","False","mono","black","32","None","380","Pause. Look at the fixation dot in order to continue.","30000","-480","480","-480","480","270","270","-270","-270","1000","0","2","legacy","At the beach, the girl built a sandcastle.","500","1024","2","2.9760000705718994","48000","-16","C:\Users\yarbus\AppData\Local\Temp\tmpg7y5i0u_.opensesame_pool\19_sandcastle.ogg","meditation","dart","math","sandcastle","meditation","dart","math","sandcastle","experiment","sandcastle","1","odd","1787","TR","204389.0","C:\Users\yarbus\Desktop\Team Cat\visual-word-paradigm\temp","6176","127419","198702","434","198702","596","127419","198577","206555","NA","204338","557","199746","198603","197957","NA","200807","131465","198602","471","experiment-visual-word-paradigm","206389.0","built","1169","wolf.mp4","1920"
"39_clothes.ogg","white","legacy","True","C:\Users\yarbus\Desktop\Team Cat\visual-word-paradigm\temp","legacy","legacy","motion","C:\Users\yarbus\Desktop\Team Cat\visual-word-paradigm\config.yml","0","0","4","0","4","0","0","4","4","0","4","0","4","4","4","0","4","0","4","0","41.57446233254247","50","Fri Aug  9 14:34:52 2024","20","The main experiment item","False","4243.99995803833","131464","pygame-experiment-visual-world-paradigm.osexp","C:\Users\yarbus\Desktop\Team Cat\visual-word-paradigm","black","0","0","medium-open","1000","False","mono","False","32","no","black","no","yes","1080","39","Look at the screen and listen carefully. press any key to continue","True","mono","black","32","None","None","w","legacy","1","wolf","4","4","laundromat","C:/Users/yarbus/Desktop/Team Cat/visual-word-paradigm/trials/subject-1.csv","2000","legacy","Melodramatic Milgram","4.0.13","False","mono","black","32","None","380","Pause. Look at the fixation dot in order to continue.","30000","-480","480","-480","480","270","270","-270","-270","1000","0","2","legacy","At the laundromat, the girl washed her clothes.","500","1024","2","3.74399995803833","48000","-16","C:\Users\yarbus\AppData\Local\Temp\tmpg7y5i0u_.opensesame_pool\39_clothes.ogg","clothes","bookshelf","horse","armchair","clothes","bookshelf","horse","armchair","experiment","clothes","1","odd","2812","BL","213378.0","C:\Users\yarbus\Desktop\Team Cat\visual-word-paradigm\temp","6176","127419","206825","434","206825","596","127419","206760","215378","NA","213328","557","207862","206793","206568","NA","208954","131465","206783","471","experiment-visual-word-paradigm","215378.0","washed","2027","wolf.mp4","1920"
"21_kite.ogg","white","legacy","True","C:\Users\yarbus\Desktop\Team Cat\visual-word-paradigm\temp","legacy","legacy","static","C:\Users\yarbus\Desktop\Team Cat\visual-word-paradigm\config.yml","0","0","5","0","5","0","0","5","5","0","5","0","5","5","5","0","5","0","5","0","16.581427702100978","50","Fri Aug  9 14:34:52 2024","20","The main experiment item","False","3884.000062942505","131464","pygame-experiment-visual-world-paradigm.osexp","C:\Users\yarbus\Desktop\Team Cat\visual-word-paradigm","black","0","0","medium-open","1000","False","mono","False","32","no","black","no","yes","1080","21","Look at the screen and listen carefully. press any key to continue","True","mono","black","32","None","None","w","legacy","1","wolf","5","5","park","C:/Users/yarbus/Desktop/Team Cat/visual-word-paradigm/trials/subject-1.csv","2000","legacy","Melodramatic Milgram","4.0.13","False","mono","black","32","None","380","Pause. Look at the fixation dot in order to continue.","30000","-480","480","-480","480","270","270","-270","-270","1000","0","2","legacy","At the park, the girl flew a kite.","500","1024","2","3.384000062942505","48000","-16","C:\Users\yarbus\AppData\Local\Temp\tmpg7y5i0u_.opensesame_pool\21_kite.ogg","cake","pool","blood","kite","cake","pool","blood","kite","experiment","kite","1","odd","2440","TR","221720.0","C:\Users\yarbus\Desktop\Team Cat\visual-word-paradigm\temp","6176","127419","215625","434","215625","596","127419","215566","223720","NA","221675","557","216672","215600","215390","NA","217741","131465","215589","471","experiment-visual-word-paradigm","223720.0","flew","1354","wolf.mp4","1920"
"64_cats.ogg","white","legacy","True","C:\Users\yarbus\Desktop\Team Cat\visual-word-paradigm\temp","legacy","legacy","motion","C:\Users\yarbus\Desktop\Team Cat\visual-word-paradigm\config.yml","0","0","6","0","6","0","0","6","6","0","6","0","6","6","6","0","6","0","6","0","31.015119886919653","50","Fri Aug  9 14:34:52 2024","20","The main experiment item","False","4676.000118255615","131464","pygame-experiment-visual-world-paradigm.osexp","C:\Users\yarbus\Desktop\Team Cat\visual-word-paradigm","black","0","0","medium-open","1000","False","mono","False","32","no","black","no","yes","1080","64","Look at the screen and listen carefully. press any key to continue","True","mono","black","32","None","None","w","legacy","1","wolf","6","6","pet store","C:/Users/yarbus/Desktop/Team Cat/visual-word-paradigm/trials/subject-1.csv","2000","legacy","Melodramatic Milgram","4.0.13","False","mono","black","32","None","380","Pause. Look at the fixation dot in order to continue.","30000","-480","480","-480","480","270","270","-270","-270","1000","0","2","legacy","At the pet store, the girl cuddled with adorable cats.","500","1024","2","4.176000118255615","48000","-16","C:\Users\yarbus\AppData\Local\Temp\tmpg7y5i0u_.opensesame_pool\64_cats.ogg","battery","cats","paperairplane","ceilingfan","battery","cats","paperairplane","ceilingfan","experiment","cats","1","odd","3384","BR","230909.0","C:\Users\yarbus\Desktop\Team Cat\visual-word-paradigm\temp","6176","127419","223936","434","223937","596","127419","223882","232909","NA","230872","557","224982","223911","223731","NA","226126","131465","223910","471","experiment-visual-word-paradigm","232909.0","cuddled","1510","wolf.mp4","1920"
"40_shopping_cart.ogg","white","legacy","True","C:\Users\yarbus\Desktop\Team Cat\visual-word-paradigm\temp","legacy","legacy","motion","C:\Users\yarbus\Desktop\Team Cat\visual-word-paradigm\config.yml","0","0","7","0","7","0","0","7","7","0","7","0","7","7","7","0","7","0","7","0","31.14120998805279","50","Fri Aug  9 14:34:52 2024","20","The main experiment item","False","4796.000003814697","131464","pygame-experiment-visual-world-paradigm.osexp","C:\Users\yarbus\Desktop\Team Cat\visual-word-paradigm","black","0","0","medium-open","1000","False","mono","False","32","no","black","no","yes","1080","40","Look at the screen and listen carefully. press any key to continue","True","mono","black","32","None","None","w","legacy","1","wolf","7","7","grocery store","C:/Users/yarbus/Desktop/Team Cat/visual-word-paradigm/trials/subject-1.csv","2000","legacy","Melodramatic Milgram","4.0.13","False","mono","black","32","None","380","Pause. Look at the fixation dot in order to continue.","30000","-480","480","-480","480","270","270","-270","-270","1000","0","2","legacy","At the grocery store, the girl pushed the shopping cart","500","1024","2","4.296000003814697","48000","-16","C:\Users\yarbus\AppData\Local\Temp\tmpg7y5i0u_.opensesame_pool\40_shopping_cart.ogg","shoppingcart","nintendods","bulldozer","paperclip","shoppingcart","nintendods","bulldozer","paperclip","experiment","shoppingcart","1","odd","3355","BL","240251.0","C:\Users\yarbus\Desktop\Team Cat\visual-word-paradigm\temp","6176","127419","233148","434","233148","596","127419","233093","242251","NA","240207","557","234194","233124","232922","NA","235301","131465","233116","471","experiment-visual-word-paradigm","242251.0","pushed","2390","wolf.mp4","1920"
"17_sofa.ogg","white","legacy","True","C:\Users\yarbus\Desktop\Team Cat\visual-word-paradigm\temp","legacy","legacy","static","C:\Users\yarbus\Desktop\Team Cat\visual-word-paradigm\config.yml","0","0","8","0","8","0","0","8","8","0","8","0","8","8","8","0","8","0","8","0","19.50429401337052","50","Fri Aug  9 14:34:52 2024","20","The main experiment item","False","3956.0000896453857","131464","pygame-experiment-visual-world-paradigm.osexp","C:\Users\yarbus\Desktop\Team Cat\visual-word-paradigm","black","0","0","medium-open","1000","False","mono","False","32","no","black","no","yes","1080","17","Look at the screen and listen carefully. press any key to continue","True","mono","black","32","None","None","w","legacy","1","wolf","8","8","living room","C:/Users/yarbus/Desktop/Team Cat/visual-word-paradigm/trials/subject-1.csv","2000","legacy","Melodramatic Milgram","4.0.13","False","mono","black","32","None","380","Pause. Look at the fixation dot in order to continue.","30000","-480","480","-480","480","270","270","-270","-270","1000","0","2","legacy","In the living room, the girl sat on a sofa. ","500","1024","2","3.4560000896453857","48000","-16","C:\Users\yarbus\AppData\Local\Temp\tmpg7y5i0u_.opensesame_pool\17_sofa.ogg","kite","egg","pencilsharpener","sofa","kite","egg","pencilsharpener","sofa","experiment","sofa","1","odd","2636","TR","248595.0","C:\Users\yarbus\Desktop\Team Cat\visual-word-paradigm\temp","6176","127419","242453","434","242453","596","127419","242384","250595","NA","248555","557","243493","242419","242253","NA","244547","131465","242407","471","experiment-visual-word-paradigm","250595.0","sat","1619","wolf.mp4","1920"
"08_letter.ogg","white","legacy","True","C:\Users\yarbus\Desktop\Team Cat\visual-word-paradigm\temp","legacy","legacy","static","C:\Users\yarbus\Desktop\Team Cat\visual-word-paradigm\config.yml","0","0","9","0","9","0","0","9","9","0","9","0","9","9","9","0","9","0","9","0","42.12598400227589","50","Fri Aug  9 14:34:52 2024","20","The main experiment item","False","3740.000009536743","131464","pygame-experiment-visual-world-paradigm.osexp","C:\Users\yarbus\Desktop\Team Cat\visual-word-paradigm","black","0","0","medium-open","1000","False","mono","False","32","no","black","no","yes","1080","8","Look at the screen and listen carefully. press any key to continue","True","mono","black","32","None","None","w","legacy","1","wolf","9","9","desk","C:/Users/yarbus/Desktop/Team Cat/visual-word-paradigm/trials/subject-1.csv","2000","legacy","Melodramatic Milgram","4.0.13","False","mono","black","32","None","380","Pause. Look at the fixation dot in order to continue.","30000","-480","480","-480","480","270","270","-270","-270","1000","0","2","legacy","At her desk, the girl wrote a letter.","500","1024","2","3.240000009536743","48000","-16","C:\Users\yarbus\AppData\Local\Temp\tmpg7y5i0u_.opensesame_pool\08_letter.ogg","meditation","bracelet","letter","cactus","meditation","bracelet","letter","cactus","experiment","letter","1","odd","2530","TL","256831.0","C:\Users\yarbus\Desktop\Team Cat\visual-word-paradigm\temp","6176","127419","250859","434","250859","596","127419","250790","258831","NA","256783","557","251895","250830","250607","NA","252954","131465","250816","471","experiment-visual-word-paradigm","258831.0","wrote","1550","wolf.mp4","1920"
"53_darts.ogg","white","legacy","True","C:\Users\yarbus\Desktop\Team Cat\visual-word-paradigm\temp","legacy","legacy","motion","C:\Users\yarbus\Desktop\Team Cat\visual-word-paradigm\config.yml","0","0","10","0","10","0","0","10","10","0","10","0","10","10","10","0","10","0","10","0","48.546122728803006","50","Fri Aug  9 14:34:52 2024","20","The main experiment item","False","3907.9999923706055","131464","pygame-experiment-visual-world-paradigm.osexp","C:\Users\yarbus\Desktop\Team Cat\visual-word-paradigm","black","0","0","medium-open","1000","False","mono","False","32","no","black","no","yes","1080","53","Look at the screen and listen carefully. press any key to continue","True","mono","black","32","None","None","w","legacy","1","wolf","10","10","bar","C:/Users/yarbus/Desktop/Team Cat/visual-word-paradigm/trials/subject-1.csv","2000","legacy","Melodramatic Milgram","4.0.13","False","mono","black","32","None","380","Pause. Look at the fixation dot in order to continue.","30000","-480","480","-480","480","270","270","-270","-270","1000","0","2","legacy","In the bar, the girl played darts. ","500","1024","2","3.4079999923706055","48000","-16","C:\Users\yarbus\AppData\Local\Temp\tmpg7y5i0u_.opensesame_pool\53_darts.ogg","dog","dart","popcorn","shoppingcart","dog","dart","popcorn","shoppingcart","experiment","dart","1","odd","2809","BR","265237.0","C:\Users\yarbus\Desktop\Team Cat\visual-word-paradigm\temp","6176","127419","259095","434","259095","596","127419","259028","267237","NA","265189","557","260134","259061","258843","NA","261220","131465","259051","471","experiment-visual-word-paradigm","267237.0","played","1930","wolf.mp4","1920"
"44_bathtub.ogg","white","legacy","True","C:\Users\yarbus\Desktop\Team Cat\visual-word-paradigm\temp","legacy","legacy","motion","C:\Users\yarbus\Desktop\Team Cat\visual-word-paradigm\config.yml","0","0","11","0","11","0","0","11","11","0","11","0","11","11","11","0","11","0","11","0","4.120721723193553","50","Fri Aug  9 14:34:52 2024","20","The main experiment item","False","4099.999904632568","131464","pygame-experiment-visual-world-paradigm.osexp","C:\Users\yarbus\Desktop\Team Cat\visual-word-paradigm","black","0","0","medium-open","1000","False","mono","False","32","no","black","no","yes","1080","44","Look at the screen and listen carefully. press any key to continue","True","mono","black","32","None","None","w","legacy","1","wolf","11","11","spa","C:/Users/yarbus/Desktop/Team Cat/visual-word-paradigm/trials/subject-1.csv","2000","legacy","Melodramatic Milgram","4.0.13","False","mono","black","32","None","380","Pause. Look at the fixation dot in order to continue.","30000","-480","480","-480","480","270","270","-270","-270","1000","0","2","legacy","In the spa, the girl relaxed in the bathtub.","500","1024","2","3.5999999046325684","48000","-16","C:\Users\yarbus\AppData\Local\Temp\tmpg7y5i0u_.opensesame_pool\44_bathtub.ogg","bathtub","wedding","dog","moon","bathtub","wedding","dog","moon","experiment","bathtub","1","odd","2713","BL","273938.0","C:\Users\yarbus\Desktop\Team Cat\visual-word-paradigm\temp","6176","127419","267528","434","267528","596","127419","267464","275938","NA","273887","557","268578","267498","267249","NA","269729","131465","267487","471","experiment-visual-word-paradigm","275938.0","relaxed","1683","wolf.mp4","1920"
"10_guitar.ogg","white","legacy","True","C:\Users\yarbus\Desktop\Team Cat\visual-word-paradigm\temp","legacy","legacy","static","C:\Users\yarbus\Desktop\Team Cat\visual-word-paradigm\config.yml","0","0","12","0","12","0","0","12","12","0","12","0","12","12","12","0","12","0","12","0","24.72938058908879","50","Fri Aug  9 14:34:52 2024","20","The main experiment item","False","4220.0000286102295","131464","pygame-experiment-visual-world-paradigm.osexp","C:\Users\yarbus\Desktop\Team Cat\visual-word-paradigm","black","0","0","medium-open","1000","False","mono","False","32","no","black","no","yes","1080","10","Look at the screen and listen carefully. press any key to continue","True","mono","black","32","None","None","w","legacy","1","wolf","12","12","musical class","C:/Users/yarbus/Desktop/Team Cat/visual-word-paradigm/trials/subject-1.csv","2000","legacy","Melodramatic Milgram","4.0.13","False","mono","black","32","None","380","Pause. Look at the fixation dot in order to continue.","30000","-480","480","-480","480","270","270","-270","-270","1000","0","2","legacy","During musical class, the girl played guitar. ","500","1024","2","3.7200000286102295","48000","-16","C:\Users\yarbus\AppData\Local\Temp\tmpg7y5i0u_.opensesame_pool\10_guitar.ogg","chicken","bowl","guitar","hiking","chicken","bowl","guitar","hiking","experiment","guitar","1","odd","2750","TL","282615.0","C:\Users\yarbus\Desktop\Team Cat\visual-word-paradigm\temp","6176","127419","276182","434","276182","596","127419","276123","284615","NA","282580","557","277225","276152","275940","NA","278296","131465","276150","471","experiment-visual-word-paradigm","284615.0","played","1897","wolf.mp4","1920"
"14_card.ogg","white","legacy","True","C:\Users\yarbus\Desktop\Team Cat\visual-word-paradigm\temp","legacy","legacy","static","C:\Users\yarbus\Desktop\Team Cat\visual-word-paradigm\config.yml","0","0","13","0","13","0","0","13","13","0","13","0","13","13","13","0","13","0","13","0","37.80136502297237","50","Fri Aug  9 14:34:52 2024","20","The main experiment item","False","4075.999975204468","131464","pygame-experiment-visual-world-paradigm.osexp","C:\Users\yarbus\Desktop\Team Cat\visual-word-paradigm","black","0","0","medium-open","1000","False","mono","False","32","no","black","no","yes","1080","14","Look at the screen and listen carefully. press any key to continue","True","mono","black","32","None","None","w","legacy","1","wolf","13","13","casino","C:/Users/yarbus/Desktop/Team Cat/visual-word-paradigm/trials/subject-1.csv","2000","legacy","Melodramatic Milgram","4.0.13","False","mono","black","32","None","380","Pause. Look at the fixation dot in order to continue.","30000","-480","480","-480","480","270","270","-270","-270","1000","0","2","legacy","At the casino, the girl picked a card. ","500","1024","2","3.5759999752044678","48000","-16","C:\Users\yarbus\AppData\Local\Temp\tmpg7y5i0u_.opensesame_pool\14_card.ogg","vegetables","sandcastle","card","parkfountain","vegetables","sandcastle","card","parkfountain","experiment","card","1","odd","2672","TL","291295.0","C:\Users\yarbus\Desktop\Team Cat\visual-word-paradigm\temp","6176","127419","285013","434","285013","596","127419","284932","293295","NA","291251","557","286049","284968","284618","NA","287120","131465","284954","471","experiment-visual-word-paradigm","293295.0","picked","2075","wolf.mp4","1920"
"16_mouse.ogg","white","legacy","True","C:\Users\yarbus\Desktop\Team Cat\visual-word-paradigm\temp","legacy","legacy","static","C:\Users\yarbus\Desktop\Team Cat\visual-word-paradigm\config.yml","0","0","14","0","14","0","0","14","14","0","14","0","14","14","14","0","14","0","14","0","30.927740961150104","50","Fri Aug  9 14:34:52 2024","20","The main experiment item","False","3740.000009536743","131464","pygame-experiment-visual-world-paradigm.osexp","C:\Users\yarbus\Desktop\Team Cat\visual-word-paradigm","black","0","0","medium-open","1000","False","mono","False","32","no","black","no","yes","1080","16","Look at the screen and listen carefully. press any key to continue","True","mono","black","32","None","None","w","legacy","1","wolf","14","14","desk","C:/Users/yarbus/Desktop/Team Cat/visual-word-paradigm/trials/subject-1.csv","2000","legacy","Melodramatic Milgram","4.0.13","False","mono","black","32","None","380","Pause. Look at the fixation dot in order to continue.","30000","-480","480","-480","480","270","270","-270","-270","1000","0","2","legacy","At her desk, the girl clicked the mouse. ","500","1024","2","3.240000009536743","48000","-16","C:\Users\yarbus\AppData\Local\Temp\tmpg7y5i0u_.opensesame_pool\16_mouse.ogg","moon","button","mouse","ceilingfan","moon","button","mouse","ceilingfan","experiment","mouse","1","odd","2425","TL","299500.0","C:\Users\yarbus\Desktop\Team Cat\visual-word-paradigm\temp","6176","127419","293542","434","293542","596","127419","293489","301500","NA","299446","557","294572","293513","293297","NA","295649","131465","293512","471","experiment-visual-word-paradigm","301500.0","clicked","1427","wolf.mp4","1920"
"52_pool.ogg","white","legacy","True","C:\Users\yarbus\Desktop\Team Cat\visual-word-paradigm\temp","legacy","legacy","motion","C:\Users\yarbus\Desktop\Team Cat\visual-word-paradigm\config.yml","0","0","15","0","15","0","0","15","15","0","15","0","15","15","15","0","15","0","15","0","29.665754608302233","50","Fri Aug  9 14:34:52 2024","20","The main experiment item","False","3548.0000972747803","131464","pygame-experiment-visual-world-paradigm.osexp","C:\Users\yarbus\Desktop\Team Cat\visual-word-paradigm","black","0","0","medium-open","1000","False","mono","False","32","no","black","no","yes","1080","52","Look at the screen and listen carefully. press any key to continue","True","mono","black","32","None","None","w","legacy","1","wolf","15","15","bar","C:/Users/yarbus/Desktop/Team Cat/visual-word-paradigm/trials/subject-1.csv","2000","legacy","Melodramatic Milgram","4.0.13","False","mono","black","32","None","380","Pause. Look at the fixation dot in order to continue.","30000","-480","480","-480","480","270","270","-270","-270","1000","0","2","legacy","In the bar, the girl played pool.","500","1024","2","3.0480000972747803","48000","-16","C:\Users\yarbus\AppData\Local\Temp\tmpg7y5i0u_.opensesame_pool\52_pool.ogg","paperairplane","pool","calculator","dance","paperairplane","pool","calculator","dance","experiment","pool","1","odd","1993","BR","307594.0","C:\Users\yarbus\Desktop\Team Cat\visual-word-paradigm\temp","6176","127419","301730","434","301730","596","127419","301652","309594","NA","307555","557","302777","301694","301501","NA","303869","131465","301678","471","experiment-visual-word-paradigm","309594.0","played","1298","wolf.mp4","1920"
"18_armchair.ogg","white","legacy","True","C:\Users\yarbus\Desktop\Team Cat\visual-word-paradigm\temp","legacy","legacy","static","C:\Users\yarbus\Desktop\Team Cat\visual-word-paradigm\config.yml","0","0","16","0","16","0","0","16","16","0","16","0","16","16","16","0","16","0","16","0","33.86023227091042","50","Fri Aug  9 14:34:52 2024","20","The main experiment item","False","3788.0001068115234","131464","pygame-experiment-visual-world-paradigm.osexp","C:\Users\yarbus\Desktop\Team Cat\visual-word-paradigm","black","0","0","medium-open","1000","False","mono","False","32","no","black","no","yes","1080","18","Look at the screen and listen carefully. press any key to continue","True","mono","black","32","None","None","w","legacy","1","wolf","16","16","living room","C:/Users/yarbus/Desktop/Team Cat/visual-word-paradigm/trials/subject-1.csv","2000","legacy","Melodramatic Milgram","4.0.13","False","mono","black","32","None","380","Pause. Look at the fixation dot in order to continue.","30000","-480","480","-480","480","270","270","-270","-270","1000","0","2","legacy","In the living room, the girl sat in an armchair.","500","1024","2","3.2880001068115234","48000","-16","C:\Users\yarbus\AppData\Local\Temp\tmpg7y5i0u_.opensesame_pool\18_armchair.ogg","wolf","battleship","frisbee","armchair","wolf","battleship","frisbee","armchair","experiment","armchair","1","odd","2048","TR","315891.0","C:\Users\yarbus\Desktop\Team Cat\visual-word-paradigm\temp","6176","127419","309889","434","309889","596","127419","309819","317891","NA","315851","557","310930","309852","309595","NA","312001","131465","309842","471","experiment-visual-word-paradigm","317891.0","sat","1290","wolf.mp4","1920"
"22_dog.ogg","white","legacy","True","C:\Users\yarbus\Desktop\Team Cat\visual-word-paradigm\temp","legacy","legacy","static","C:\Users\yarbus\Desktop\Team Cat\visual-word-paradigm\config.yml","0","0","17","0","17","0","0","17","17","0","17","0","17","17","17","0","17","0","17","0","49.204557345026494","50","Fri Aug  9 14:34:52 2024","20","The main experiment item","False","3523.9999294281006","131464","pygame-experiment-visual-world-paradigm.osexp","C:\Users\yarbus\Desktop\Team Cat\visual-word-paradigm","black","0","0","medium-open","1000","False","mono","False","32","no","black","no","yes","1080","22","Look at the screen and listen carefully. press any key to continue","True","mono","black","32","None","None","w","legacy","1","wolf","17","17","park","C:/Users/yarbus/Desktop/Team Cat/visual-word-paradigm/trials/subject-1.csv","2000","legacy","Melodramatic Milgram","4.0.13","False","mono","black","32","None","380","Pause. Look at the fixation dot in order to continue.","30000","-480","480","-480","480","270","270","-270","-270","1000","0","2","legacy","At the park, the girl walked a dog. ","500","1024","2","3.0239999294281006","48000","-16","C:\Users\yarbus\AppData\Local\Temp\tmpg7y5i0u_.opensesame_pool\22_dog.ogg","calculator","mitten","button","dog","calculator","mitten","button","dog","experiment","dog","1","odd","2241","TR","323891.0","C:\Users\yarbus\Desktop\Team Cat\visual-word-paradigm\temp","6176","127419","318152","434","318152","596","127419","318091","325929","NA","323846","557","319194","318120","317903","NA","320273","131465","318114","471","experiment-visual-word-paradigm","325891.0","walked","1379","wolf.mp4","1920"
"47_baggage.ogg","white","legacy","True","C:\Users\yarbus\Desktop\Team Cat\visual-word-paradigm\temp","legacy","legacy","motion","C:\Users\yarbus\Desktop\Team Cat\visual-word-paradigm\config.yml","0","0","18","0","18","0","0","18","18","0","18","0","18","18","18","0","18","0","18","0","44.582464098791135","50","Fri Aug  9 14:34:52 2024","20","The main experiment item","False","4676.000118255615","131464","pygame-experiment-visual-world-paradigm.osexp","C:\Users\yarbus\Desktop\Team Cat\visual-word-paradigm","black","0","0","medium-open","1000","False","mono","False","32","no","black","no","yes","1080","47","Look at the screen and listen carefully. press any key to continue","True","mono","black","32","None","None","w","legacy","1","wolf","18","18","airport","C:/Users/yarbus/Desktop/Team Cat/visual-word-paradigm/trials/subject-1.csv","2000","legacy","Melodramatic Milgram","4.0.13","False","mono","black","32","None","380","Pause. Look at the fixation dot in order to continue.","30000","-480","480","-480","480","270","270","-270","-270","1000","0","2","legacy","At the airport, the girl waited at the baggage claim.","500","1024","2","4.176000118255615","48000","-16","C:\Users\yarbus\AppData\Local\Temp\tmpg7y5i0u_.opensesame_pool\47_baggage.ogg","baggage","rollercoaster","basketballhoop","croissant","baggage","rollercoaster","basketballhoop","croissant","experiment","baggage","1","odd","2756","BL","333181.0","C:\Users\yarbus\Desktop\Team Cat\visual-word-paradigm\temp","6176","127419","326221","434","326221","596","127419","326161","335181","NA","333135","557","327260","326192","325943","NA","328363","131465","326190","471","experiment-visual-word-paradigm","335181.0","waited","1593","wolf.mp4","1920"
"31_landscape.ogg","white","legacy","True","C:\Users\yarbus\Desktop\Team Cat\visual-word-paradigm\temp","legacy","legacy","static","C:\Users\yarbus\Desktop\Team Cat\visual-word-paradigm\config.yml","0","0","19","0","19","0","0","19","19","0","19","0","19","19","19","0","19","0","19","0","43.837105263919874","50","Fri Aug  9 14:34:52 2024","20","The main experiment item","False","4220.0000286102295","131464","pygame-experiment-visual-world-paradigm.osexp","C:\Users\yarbus\Desktop\Team Cat\visual-word-paradigm","black","0","0","medium-open","1000","False","mono","False","32","no","black","no","yes","1080","31","Look at the screen and listen carefully. press any key to continue","True","mono","black","32","None","None","w","legacy","1","wolf","19","19","art class","C:/Users/yarbus/Desktop/Team Cat/visual-word-paradigm/trials/subject-1.csv","2000","legacy","Melodramatic Milgram","4.0.13","False","mono","black","32","None","380","Pause. Look at the fixation dot in order to continue.","30000","-480","480","-480","480","270","270","-270","-270","1000","0","2","legacy","During art class, the girl painted a landscape.","500","1024","2","3.7200000286102295","48000","-16","C:\Users\yarbus\AppData\Local\Temp\tmpg7y5i0u_.opensesame_pool\31_landscape.ogg","cats","boxtruck","belt","landscapepainting","cats","boxtruck","belt","landscapepainting","experiment","landscapepainting","1","odd","2742","TR","341935.0","C:\Users\yarbus\Desktop\Team Cat\visual-word-paradigm\temp","6176","127419","335472","434","335472","596","127419","335405","344164","NA","341883","557","336506","335439","335190","NA","337593","131465","335428","471","experiment-visual-word-paradigm","343935.0","painted","2015","wolf.mp4","1920"
"42_bicycle.ogg","white","legacy","True","C:\Users\yarbus\Desktop\Team Cat\visual-word-paradigm\temp","legacy","legacy","motion","C:\Users\yarbus\Desktop\Team Cat\visual-word-paradigm\config.yml","0","0","20","0","20","0","0","20","20","0","20","0","20","20","20","0","20","0","20","0","23.231864410761343","50","Fri Aug  9 14:34:52 2024","20","The main experiment item","False","4292.00005531311","131464","pygame-experiment-visual-world-paradigm.osexp","C:\Users\yarbus\Desktop\Team Cat\visual-word-paradigm","black","0","0","medium-open","1000","False","mono","False","32","no","black","no","yes","1080","42","Look at the screen and listen carefully. press any key to continue","True","mono","black","32","None","None","w","legacy","1","wolf","20","20","garage","C:/Users/yarbus/Desktop/Team Cat/visual-word-paradigm/trials/subject-1.csv","2000","legacy","Melodramatic Milgram","4.0.13","False","mono","black","32","None","380","Pause. Look at the fixation dot in order to continue.","30000","-480","480","-480","480","270","270","-270","-270","1000","0","2","legacy","In the garage, the girl fixed her bicycle.","500","1024","2","3.7920000553131104","48000","-16","C:\Users\yarbus\AppData\Local\Temp\tmpg7y5i0u_.opensesame_pool\42_bicycle.ogg","bicycle","clothes","patioumbrella","card","bicycle","clothes","patioumbrella","card","experiment","bicycle","1","odd","2516","BL","350951.0","C:\Users\yarbus\Desktop\Team Cat\visual-word-paradigm\temp","6176","127419","344427","434","344427","596","127419","344356","353827","NA","350905","557","345471","344391","344179","NA","346552","131465","344379","471","experiment-visual-word-paradigm","352951.0","fixed","1627","wolf.mp4","1920"
"63_meditation.ogg","white","legacy","True","C:\Users\yarbus\Desktop\Team Cat\visual-word-paradigm\temp","legacy","legacy","motion","C:\Users\yarbus\Desktop\Team Cat\visual-word-paradigm\config.yml","0","0","21","0","21","0","0","21","21","0","21","0","21","21","21","0","21","0","21","0","41.33662197519286","50","Fri Aug  9 14:34:52 2024","20","The main experiment item","False","4748.000144958496","131464","pygame-experiment-visual-world-paradigm.osexp","C:\Users\yarbus\Desktop\Team Cat\visual-word-paradigm","black","0","0","medium-open","1000","False","mono","False","32","no","black","no","yes","1080","63","Look at the screen and listen carefully. press any key to continue","True","mono","black","32","None","None","w","legacy","1","wolf","21","21","yoga class","C:/Users/yarbus/Desktop/Team Cat/visual-word-paradigm/trials/subject-1.csv","2000","legacy","Melodramatic Milgram","4.0.13","False","mono","black","32","None","380","Pause. Look at the fixation dot in order to continue.","30000","-480","480","-480","480","270","270","-270","-270","1000","0","2","legacy","During yoga class, the girl practised meditation. ","500","1024","2","4.248000144958496","48000","-16","C:\Users\yarbus\AppData\Local\Temp\tmpg7y5i0u_.opensesame_pool\63_meditation.ogg","barbecue","meditation","mitten","bookshelf","barbecue","meditation","mitten","bookshelf","experiment","meditation","1","odd","3105","BR","361173.0","C:\Users\yarbus\Desktop\Team Cat\visual-word-paradigm\temp","6176","127419","354141","434","354141","596","127419","354085","364839","NA","361125","557","355179","354110","353840","NA","356283","131465","354109","471","experiment-visual-word-paradigm","363173.0","practised","2119","wolf.mp4","1920"
"25_dishes.ogg","white","legacy","True","C:\Users\yarbus\Desktop\Team Cat\visual-word-paradigm\temp","legacy","legacy","static","C:\Users\yarbus\Desktop\Team Cat\visual-word-paradigm\config.yml","0","0","22","0","22","0","0","22","22","0","22","0","22","22","22","0","22","0","22","0","14.75399838958919","50","Fri Aug  9 14:34:52 2024","20","The main experiment item","False","3691.999912261963","131464","pygame-experiment-visual-world-paradigm.osexp","C:\Users\yarbus\Desktop\Team Cat\visual-word-paradigm","black","0","0","medium-open","1000","False","mono","False","32","no","black","no","yes","1080","25","Look at the screen and listen carefully. press any key to continue","True","mono","black","32","None","None","w","legacy","1","wolf","22","22","kitchen","C:/Users/yarbus/Desktop/Team Cat/visual-word-paradigm/trials/subject-1.csv","2000","legacy","Melodramatic Milgram","4.0.13","False","mono","black","32","None","380","Pause. Look at the fixation dot in order to continue.","30000","-480","480","-480","480","270","270","-270","-270","1000","0","2","legacy","In the kitchen, the girl washed dishes.","500","1024","2","3.191999912261963","48000","-16","C:\Users\yarbus\AppData\Local\Temp\tmpg7y5i0u_.opensesame_pool\25_dishes.ogg","pacifier","seashells","cigarette","dishes","pacifier","seashells","cigarette","dishes","experiment","dishes","1","odd","2151","TR","371145.0","C:\Users\yarbus\Desktop\Team Cat\visual-word-paradigm\temp","6176","127419","365250","434","365251","596","127419","365166","373145","NA","371095","557","366290","365202","364840","NA","367351","131465","365189","471","experiment-visual-word-paradigm","373145.0","washed","1440","wolf.mp4","1920"
"01_apple.ogg","white","legacy","True","C:\Users\yarbus\Desktop\Team Cat\visual-word-paradigm\temp","legacy","legacy","static","C:\Users\yarbus\Desktop\Team Cat\visual-word-paradigm\config.yml","0","0","23","0","23","0","0","23","23","0","23","0","23","23","23","0","23","0","23","0","11.972160406543182","50","Fri Aug  9 14:34:52 2024","20","The main experiment item","False","3835.9999656677246","131464","pygame-experiment-visual-world-paradigm.osexp","C:\Users\yarbus\Desktop\Team Cat\visual-word-paradigm","black","0","0","medium-open","1000","False","mono","False","32","no","black","no","yes","1080","1","Look at the screen and listen carefully. press any key to continue","True","mono","black","32","None","None","w","legacy","1","wolf","23","23","breakfast","C:/Users/yarbus/Desktop/Team Cat/visual-word-paradigm/trials/subject-1.csv","2000","legacy","Melodramatic Milgram","4.0.13","False","mono","black","32","None","380","Pause. Look at the fixation dot in order to continue.","30000","-480","480","-480","480","270","270","-270","-270","1000","0","2","legacy"," At breakfast, I usually eat an apple.","500","1024","2","3.3359999656677246","48000","-16","C:\Users\yarbus\AppData\Local\Temp\tmpg7y5i0u_.opensesame_pool\01_apple.ogg","pool","wolf","apple","archery","pool","wolf","apple","archery","experiment","apple","1","odd","2696","TL","379419.0","C:\Users\yarbus\Desktop\Team Cat\visual-word-paradigm\temp","6176","127419","373404","434","373404","596","127419","373347","381419","NA","379377","557","374439","373370","373147","NA","375494","131465","373369","471","experiment-visual-word-paradigm","381419.0","eat","1657","wolf.mp4","1920"
"43_car.ogg","white","legacy","True","C:\Users\yarbus\Desktop\Team Cat\visual-word-paradigm\temp","legacy","legacy","motion","C:\Users\yarbus\Desktop\Team Cat\visual-word-paradigm\config.yml","0","0","24","0","24","0","0","24","24","0","24","0","24","24","24","0","24","0","24","0","35.64655681100216","50","Fri Aug  9 14:34:52 2024","20","The main experiment item","False","3956.0000896453857","131464","pygame-experiment-visual-world-paradigm.osexp","C:\Users\yarbus\Desktop\Team Cat\visual-word-paradigm","black","0","0","medium-open","1000","False","mono","False","32","no","black","no","yes","1080","43","Look at the screen and listen carefully. press any key to continue","True","mono","black","32","None","None","w","legacy","1","wolf","24","24","garage","C:/Users/yarbus/Desktop/Team Cat/visual-word-paradigm/trials/subject-1.csv","2000","legacy","Melodramatic Milgram","4.0.13","False","mono","black","32","None","380","Pause. Look at the fixation dot in order to continue.","30000","-480","480","-480","480","270","270","-270","-270","1000","0","2","legacy","In the garage, the girl washed her car.","500","1024","2","3.4560000896453857","48000","-16","C:\Users\yarbus\AppData\Local\Temp\tmpg7y5i0u_.opensesame_pool\43_car.ogg","car","cd","brainmodel","bear","car","cd","brainmodel","bear","experiment","car","1","odd","2227","BL","388005.0","C:\Users\yarbus\Desktop\Team Cat\visual-word-paradigm\temp","6176","127419","381676","434","381676","596","127419","381613","390365","NA","387953","557","382729","381647","381431","NA","383859","131465","381635","471","experiment-visual-word-paradigm","390005.0","washed","1398","wolf.mp4","1920"
"26_weights.ogg","white","legacy","True","C:\Users\yarbus\Desktop\Team Cat\visual-word-paradigm\temp","legacy","legacy","static","C:\Users\yarbus\Desktop\Team Cat\visual-word-paradigm\config.yml","0","0","25","0","25","0","0","25","25","0","25","0","25","25","25","0","25","0","25","0","30.49848620505614","50","Fri Aug  9 14:34:52 2024","20","The main experiment item","False","3907.9999923706055","131464","pygame-experiment-visual-world-paradigm.osexp","C:\Users\yarbus\Desktop\Team Cat\visual-word-paradigm","black","0","0","medium-open","1000","False","mono","False","32","no","black","no","yes","1080","26","Look at the screen and listen carefully. press any key to continue","True","mono","black","32","None","None","w","legacy","1","wolf","25","25","gym","C:/Users/yarbus/Desktop/Team Cat/visual-word-paradigm/trials/subject-1.csv","2000","legacy","Melodramatic Milgram","4.0.13","False","mono","black","32","None","380","Pause. Look at the fixation dot in order to continue.","30000","-480","480","-480","480","270","270","-270","-270","1000","0","2","legacy","At the gym, the girl lifted weights.","500","1024","2","3.4079999923706055","48000","-16","C:\Users\yarbus\AppData\Local\Temp\tmpg7y5i0u_.opensesame_pool\26_weights.ogg","croissant","horse","paintcan","weights","croissant","horse","paintcan","weights","experiment","weights","1","odd","2831","TR","396973.0","C:\Users\yarbus\Desktop\Team Cat\visual-word-paradigm\temp","6176","127419","390821","434","390822","596","127419","390701","404216","NA","396921","557","391864","390767","390378","NA","392948","131465","390730","471","experiment-visual-word-paradigm","398973.0","lifted","1825","wolf.mp4","1920"
"04_banana.ogg","white","legacy","True","C:\Users\yarbus\Desktop\Team Cat\visual-word-paradigm\temp","legacy","legacy","static","C:\Users\yarbus\Desktop\Team Cat\visual-word-paradigm\config.yml","0","0","26","0","26","0","0","26","26","0","26","0","26","26","26","0","26","0","26","0","49.65816077947308","50","Fri Aug  9 14:34:52 2024","20","The main experiment item","False","4003.999948501587","131464","pygame-experiment-visual-world-paradigm.osexp","C:\Users\yarbus\Desktop\Team Cat\visual-word-paradigm","black","0","0","medium-open","1000","False","mono","False","32","no","black","no","yes","1080","4","Look at the screen and listen carefully. press any key to continue","True","mono","black","32","None","None","w","legacy","1","wolf","26","26","breakfast","C:/Users/yarbus/Desktop/Team Cat/visual-word-paradigm/trials/subject-1.csv","2000","legacy","Melodramatic Milgram","4.0.13","False","mono","black","32","None","380","Pause. Look at the fixation dot in order to continue.","30000","-480","480","-480","480","270","270","-270","-270","1000","0","2","legacy","At breakfast, the girl ate a banana.","500","1024","2","3.503999948501587","48000","-16","C:\Users\yarbus\AppData\Local\Temp\tmpg7y5i0u_.opensesame_pool\04_banana.ogg","pants","videogame","banana","clothes","pants","videogame","banana","clothes","experiment","banana","1","odd","2500","TL","411278.0","C:\Users\yarbus\Desktop\Team Cat\visual-word-paradigm\temp","6176","127419","405060","434","405060","596","127419","404924","418079","NA","411237","557","406103","404950","404229","NA","407179","131465","404947","471","experiment-visual-word-paradigm","413278.0","ate","1770","wolf.mp4","1920"
"30_cottoncandy.ogg","white","legacy","True","C:\Users\yarbus\Desktop\Team Cat\visual-word-paradigm\temp","legacy","legacy","static","C:\Users\yarbus\Desktop\Team Cat\visual-word-paradigm\config.yml","0","0","27","0","27","0","0","27","27","0","27","0","27","27","27","0","27","0","27","0","39.73241325668498","50","Fri Aug  9 14:34:52 2024","20","The main experiment item","False","4028.0001163482666","131464","pygame-experiment-visual-world-paradigm.osexp","C:\Users\yarbus\Desktop\Team Cat\visual-word-paradigm","black","0","0","medium-open","1000","False","mono","False","32","no","black","no","yes","1080","30","Look at the screen and listen carefully. press any key to continue","True","mono","black","32","None","None","w","legacy","1","wolf","27","27","carnival","C:/Users/yarbus/Desktop/Team Cat/visual-word-paradigm/trials/subject-1.csv","2000","legacy","Melodramatic Milgram","4.0.13","False","mono","black","32","None","380","Pause. Look at the fixation dot in order to continue.","30000","-480","480","-480","480","270","270","-270","-270","1000","0","2","legacy","At the carnival, the girl ate cotton candy.","500","1024","2","3.5280001163482666","48000","-16","C:\Users\yarbus\AppData\Local\Temp\tmpg7y5i0u_.opensesame_pool\30_cottoncandy.ogg","badminton","armchair","boxingglove","cottoncandy","badminton","armchair","boxingglove","cottoncandy","experiment","cottoncandy","1","odd","2400","TR","425176.0","C:\Users\yarbus\Desktop\Team Cat\visual-word-paradigm\temp","6176","127419","418870","434","418870","596","127419","418744","428379","NA","425136","557","419913","418776","418091","NA","421055","131465","418767","471","experiment-visual-word-paradigm","427176.0","ate","1970","wolf.mp4","1920"
"35_soccermatch.ogg","white","legacy","True","C:\Users\yarbus\Desktop\Team Cat\visual-word-paradigm\temp","legacy","legacy","motion","C:\Users\yarbus\Desktop\Team Cat\visual-word-paradigm\config.yml","0","0","28","0","28","0","0","28","28","0","28","0","28","28","28","0","28","0","28","0","16.286474314596163","50","Fri Aug  9 14:34:52 2024","20","The main experiment item","False","4292.00005531311","131464","pygame-experiment-visual-world-paradigm.osexp","C:\Users\yarbus\Desktop\Team Cat\visual-word-paradigm","black","0","0","medium-open","1000","False","mono","False","32","no","black","no","yes","1080","35","Look at the screen and listen carefully. press any key to continue","True","mono","black","32","None","None","w","legacy","1","wolf","28","28","stadium","C:/Users/yarbus/Desktop/Team Cat/visual-word-paradigm/trials/subject-1.csv","2000","legacy","Melodramatic Milgram","4.0.13","False","mono","black","32","None","380","Pause. Look at the fixation dot in order to continue.","30000","-480","480","-480","480","270","270","-270","-270","1000","0","2","legacy","At the stadium, the girl watched a soccer match.","500","1024","2","3.7920000553131104","48000","-16","C:\Users\yarbus\AppData\Local\Temp\tmpg7y5i0u_.opensesame_pool\35_soccermatch.ogg","soccer","parkfountain","bottlecap","nintendods","soccer","parkfountain","bottlecap","nintendods","experiment","soccer","1","odd","2580","BL","435356.0","C:\Users\yarbus\Desktop\Team Cat\visual-word-paradigm\temp","6176","127419","428767","434","428767","596","127419","428685","437356","NA","435314","557","429812","428722","428391","NA","430910","131465","428713","471","experiment-visual-word-paradigm","437356.0","watched","1652","wolf.mp4","1920"
"15_keyboard.ogg","white","legacy","True","C:\Users\yarbus\Desktop\Team Cat\visual-word-paradigm\temp","legacy","legacy","static","C:\Users\yarbus\Desktop\Team Cat\visual-word-paradigm\config.yml","0","0","29","0","29","0","0","29","29","0","29","0","29","29","29","0","29","0","29","0","44.90893448034592","50","Fri Aug  9 14:34:52 2024","20","The main experiment item","False","4196.000099182129","131464","pygame-experiment-visual-world-paradigm.osexp","C:\Users\yarbus\Desktop\Team Cat\visual-word-paradigm","black","0","0","medium-open","1000","False","mono","False","32","no","black","no","yes","1080","15","Look at the screen and listen carefully. press any key to continue","True","mono","black","32","None","None","w","legacy","1","wolf","29","29","desk","C:/Users/yarbus/Desktop/Team Cat/visual-word-paradigm/trials/subject-1.csv","2000","legacy","Melodramatic Milgram","4.0.13","False","mono","black","32","None","380","Pause. Look at the fixation dot in order to continue.","30000","-480","480","-480","480","270","270","-270","-270","1000","0","2","legacy","At her desk, the girl typed on the keyboard.","500","1024","2","3.696000099182129","48000","-16","C:\Users\yarbus\AppData\Local\Temp\tmpg7y5i0u_.opensesame_pool\15_keyboard.ogg","paintcan","sofa","keyboard","bowl","paintcan","sofa","keyboard","bowl","experiment","keyboard","1","odd","2111","TL","444051.0","C:\Users\yarbus\Desktop\Team Cat\visual-word-paradigm\temp","6176","127419","437628","434","437628","596","127419","437561","446155","NA","444013","557","438660","437593","437368","NA","439711","131465","437584","471","experiment-visual-word-paradigm","446051.0","typed","1500","wolf.mp4","1920"
"61_cellphone.ogg","white","legacy","True","C:\Users\yarbus\Desktop\Team Cat\visual-word-paradigm\temp","legacy","legacy","motion","C:\Users\yarbus\Desktop\Team Cat\visual-word-paradigm\config.yml","0","0","30","0","30","0","0","30","30","0","30","0","30","30","30","0","30","0","30","0","40.39185841329908","50","Fri Aug  9 14:34:52 2024","20","The main experiment item","False","4868.000030517578","131464","pygame-experiment-visual-world-paradigm.osexp","C:\Users\yarbus\Desktop\Team Cat\visual-word-paradigm","black","0","0","medium-open","1000","False","mono","False","32","no","black","no","yes","1080","61","Look at the screen and listen carefully. press any key to continue","True","mono","black","32","None","None","w","legacy","1","wolf","30","30","cinema","C:/Users/yarbus/Desktop/Team Cat/visual-word-paradigm/trials/subject-1.csv","2000","legacy","Melodramatic Milgram","4.0.13","False","mono","black","32","None","380","Pause. Look at the fixation dot in order to continue.","30000","-480","480","-480","480","270","270","-270","-270","1000","0","2","legacy","In the cinema, the girl turned off her cellphone.","500","1024","2","4.368000030517578","48000","-16","C:\Users\yarbus\AppData\Local\Temp\tmpg7y5i0u_.opensesame_pool\61_cellphone.ogg","documents","cellphone","badminton","bathtub","documents","cellphone","badminton","bathtub","experiment","cellphone","1","odd","2297","BR","453523.0","C:\Users\yarbus\Desktop\Team Cat\visual-word-paradigm\temp","6176","127419","446421","434","446421","596","127419","446357","455552","NA","453478","557","447451","446388","446168","NA","448547","131465","446380","471","experiment-visual-word-paradigm","455523.0","turned off","1473","wolf.mp4","1920"
"05_cookie.ogg","white","legacy","True","C:\Users\yarbus\Desktop\Team Cat\visual-word-paradigm\temp","legacy","legacy","static","C:\Users\yarbus\Desktop\Team Cat\visual-word-paradigm\config.yml","0","0","31","0","31","0","0","31","31","0","31","0","31","31","31","0","31","0","31","0","34.60321516853597","50","Fri Aug  9 14:34:52 2024","20","The main experiment item","False","3907.9999923706055","131464","pygame-experiment-visual-world-paradigm.osexp","C:\Users\yarbus\Desktop\Team Cat\visual-word-paradigm","black","0","0","medium-open","1000","False","mono","False","32","no","black","no","yes","1080","5","Look at the screen and listen carefully. press any key to continue","True","mono","black","32","None","None","w","legacy","1","wolf","31","31","breakfast","C:/Users/yarbus/Desktop/Team Cat/visual-word-paradigm/trials/subject-1.csv","2000","legacy","Melodramatic Milgram","4.0.13","False","mono","black","32","None","380","Pause. Look at the fixation dot in order to continue.","30000","-480","480","-480","480","270","270","-270","-270","1000","0","2","legacy","At breakfast, the girl ate a cookie.","500","1024","2","3.4079999923706055","48000","-16","C:\Users\yarbus\AppData\Local\Temp\tmpg7y5i0u_.opensesame_pool\05_cookie.ogg","pants","nailclipper","cookie","movie","pants","nailclipper","cookie","movie","experiment","cookie","1","odd","2350","TL","461963.0","C:\Users\yarbus\Desktop\Team Cat\visual-word-paradigm\temp","6176","127419","455817","434","455817","596","127419","455751","463978","NA","461922","557","456863","455782","455565","NA","457946","131465","455775","471","experiment-visual-word-paradigm","463963.0","ate","1740","wolf.mp4","1920"
"57_trails.ogg","white","legacy","True","C:\Users\yarbus\Desktop\Team Cat\visual-word-paradigm\temp","legacy","legacy","motion","C:\Users\yarbus\Desktop\Team Cat\visual-word-paradigm\config.yml","0","0","32","0","32","0","0","32","32","0","32","0","32","32","32","0","32","0","32","0","31.353530763854938","50","Fri Aug  9 14:34:52 2024","20","The main experiment item","False","3859.999895095825","131464","pygame-experiment-visual-world-paradigm.osexp","C:\Users\yarbus\Desktop\Team Cat\visual-word-paradigm","black","0","0","medium-open","1000","False","mono","False","32","no","black","no","yes","1080","57","Look at the screen and listen carefully. press any key to continue","True","mono","black","32","None","None","w","legacy","1","wolf","32","32","forest","C:/Users/yarbus/Desktop/Team Cat/visual-word-paradigm/trials/subject-1.csv","2000","legacy","Melodramatic Milgram","4.0.13","False","mono","black","32","None","380","Pause. Look at the fixation dot in order to continue.","30000","-480","480","-480","480","270","270","-270","-270","1000","0","2","legacy","In the forest, the girl hiked on trails.","500","1024","2","3.359999895095825","48000","-16","C:\Users\yarbus\AppData\Local\Temp\tmpg7y5i0u_.opensesame_pool\57_trails.ogg","bust","hiking","belt","bathtub","bust","hiking","belt","bathtub","experiment","trails","1","odd","2394","BR","470460.0","C:\Users\yarbus\Desktop\Team Cat\visual-word-paradigm\temp","6176","127419","464224","434","464224","596","127419","464167","472488","NA","470415","557","465274","464200","463991","NA","466432","131465","464196","471","experiment-visual-word-paradigm","472460.0","hiked","1349","wolf.mp4","1920"
"28_rollercoaster.ogg","white","legacy","True","C:\Users\yarbus\Desktop\Team Cat\visual-word-paradigm\temp","legacy","legacy","static","C:\Users\yarbus\Desktop\Team Cat\visual-word-paradigm\config.yml","0","0","33","0","33","0","0","33","33","0","33","0","33","33","33","0","33","0","33","0","29.554527320192435","50","Fri Aug  9 14:34:52 2024","20","The main experiment item","False","4292.00005531311","131464","pygame-experiment-visual-world-paradigm.osexp","C:\Users\yarbus\Desktop\Team Cat\visual-word-paradigm","black","0","0","medium-open","1000","False","mono","False","32","no","black","no","yes","1080","28","Look at the screen and listen carefully. press any key to continue","True","mono","black","32","None","None","w","legacy","1","wolf","33","33","carnival","C:/Users/yarbus/Desktop/Team Cat/visual-word-paradigm/trials/subject-1.csv","2000","legacy","Melodramatic Milgram","4.0.13","False","mono","black","32","None","380","Pause. Look at the fixation dot in order to continue.","30000","-480","480","-480","480","270","270","-270","-270","1000","0","2","legacy","At the carnival, the girl rode a roller coaster.","500","1024","2","3.7920000553131104","48000","-16","C:\Users\yarbus\AppData\Local\Temp\tmpg7y5i0u_.opensesame_pool\28_rollercoaster.ogg","picnic","bust","videogame","rollercoaster","picnic","bust","videogame","rollercoaster","experiment","rollercoaster","1","odd","2229","TR","479236.0","C:\Users\yarbus\Desktop\Team Cat\visual-word-paradigm\temp","6176","127419","472743","434","472743","596","127419","472675","481236","NA","479196","557","473774","472708","472491","NA","474843","131465","472698","471","experiment-visual-word-paradigm","481236.0","rode","1651","wolf.mp4","1920"
"55_frisbee.ogg","white","legacy","True","C:\Users\yarbus\Desktop\Team Cat\visual-word-paradigm\temp","legacy","legacy","motion","C:\Users\yarbus\Desktop\Team Cat\visual-word-paradigm\config.yml","0","0","34","0","34","0","0","34","34","0","34","0","34","34","34","0","34","0","34","0","6.125070840406623","50","Fri Aug  9 14:34:52 2024","20","The main experiment item","False","3716.0000801086426","131464","pygame-experiment-visual-world-paradigm.osexp","C:\Users\yarbus\Desktop\Team Cat\visual-word-paradigm","black","0","0","medium-open","1000","False","mono","False","32","no","black","no","yes","1080","55","Look at the screen and listen carefully. press any key to continue","True","mono","black","32","None","None","w","legacy","1","wolf","34","34","grass","C:/Users/yarbus/Desktop/Team Cat/visual-word-paradigm/trials/subject-1.csv","2000","legacy","Melodramatic Milgram","4.0.13","False","mono","black","32","None","380","Pause. Look at the fixation dot in order to continue.","30000","-480","480","-480","480","270","270","-270","-270","1000","0","2","legacy","On the grass, the girl played frisbee.","500","1024","2","3.2160000801086426","48000","-16","C:\Users\yarbus\AppData\Local\Temp\tmpg7y5i0u_.opensesame_pool\55_frisbee.ogg","car","frisbee","math","rollercoaster","car","frisbee","math","rollercoaster","experiment","frisbee","1","odd","2036","BR","487544.0","C:\Users\yarbus\Desktop\Team Cat\visual-word-paradigm\temp","6176","127419","481486","434","481486","596","127419","481422","493514","NA","487489","557","482533","481458","481248","NA","483619","131465","481445","471","experiment-visual-word-paradigm","489544.0","played","1742","wolf.mp4","1920"
"23_novel.ogg","white","legacy","True","C:\Users\yarbus\Desktop\Team Cat\visual-word-paradigm\temp","legacy","legacy","static","C:\Users\yarbus\Desktop\Team Cat\visual-word-paradigm\config.yml","0","0","35","0","35","0","0","35","35","0","35","0","35","35","35","0","35","0","35","0","25.67412316866921","50","Fri Aug  9 14:34:52 2024","20","The main experiment item","False","3523.9999294281006","131464","pygame-experiment-visual-world-paradigm.osexp","C:\Users\yarbus\Desktop\Team Cat\visual-word-paradigm","black","0","0","medium-open","1000","False","mono","False","32","no","black","no","yes","1080","23","Look at the screen and listen carefully. press any key to continue","True","mono","black","32","None","None","w","legacy","1","wolf","35","35","library","C:/Users/yarbus/Desktop/Team Cat/visual-word-paradigm/trials/subject-1.csv","2000","legacy","Melodramatic Milgram","4.0.13","False","mono","black","32","None","380","Pause. Look at the fixation dot in order to continue.","30000","-480","480","-480","480","270","270","-270","-270","1000","0","2","legacy","In the library, the girl read a novel.","500","1024","2","3.0239999294281006","48000","-16","C:\Users\yarbus\AppData\Local\Temp\tmpg7y5i0u_.opensesame_pool\23_novel.ogg","guitar","bracelet","marshmallow","novel","guitar","bracelet","marshmallow","novel","experiment","novel","1","odd","2220","TR","499918.0","C:\Users\yarbus\Desktop\Team Cat\visual-word-paradigm\temp","6176","127419","494208","434","494208","596","127419","494093","501918","NA","499872","557","495238","494124","493521","NA","496291","131465","494116","471","experiment-visual-word-paradigm","501918.0","read","1595","wolf.mp4","1920"
"45_basketball.ogg","white","legacy","True","C:\Users\yarbus\Desktop\Team Cat\visual-word-paradigm\temp","legacy","legacy","motion","C:\Users\yarbus\Desktop\Team Cat\visual-word-paradigm\config.yml","0","0","36","0","36","0","0","36","36","0","36","0","36","36","36","0","36","0","36","0","21.581636994445144","50","Fri Aug  9 14:34:52 2024","20","The main experiment item","False","4196.000099182129","131464","pygame-experiment-visual-world-paradigm.osexp","C:\Users\yarbus\Desktop\Team Cat\visual-word-paradigm","black","0","0","medium-open","1000","False","mono","False","32","no","black","no","yes","1080","45","Look at the screen and listen carefully. press any key to continue","True","mono","black","32","None","None","w","legacy","1","wolf","36","36","sports hall","C:/Users/yarbus/Desktop/Team Cat/visual-word-paradigm/trials/subject-1.csv","2000","legacy","Melodramatic Milgram","4.0.13","False","mono","black","32","None","380","Pause. Look at the fixation dot in order to continue.","30000","-480","480","-480","480","270","270","-270","-270","1000","0","2","legacy","At the sports hall, the girl played basketball.","500","1024","2","3.696000099182129","48000","-16","C:\Users\yarbus\AppData\Local\Temp\tmpg7y5i0u_.opensesame_pool\45_basketball.ogg","basketball","mitten","clothes","boxtruck","basketball","mitten","clothes","boxtruck","experiment","basketball","1","odd","2613","BL","508568.0","C:\Users\yarbus\Desktop\Team Cat\visual-word-paradigm\temp","6176","127419","502164","434","502164","596","127419","502105","510568","NA","508526","557","503207","502136","501919","NA","504277","131465","502127","471","experiment-visual-word-paradigm","510568.0","played","1819","wolf.mp4","1920"
"58_fish.ogg","white","legacy","True","C:\Users\yarbus\Desktop\Team Cat\visual-word-paradigm\temp","legacy","legacy","motion","C:\Users\yarbus\Desktop\Team Cat\visual-word-paradigm\config.yml","0","0","37","0","37","0","0","37","37","0","37","0","37","37","37","0","37","0","37","0","27.690608444019418","50","Fri Aug  9 14:34:52 2024","20","The main experiment item","False","3691.999912261963","131464","pygame-experiment-visual-world-paradigm.osexp","C:\Users\yarbus\Desktop\Team Cat\visual-word-paradigm","black","0","0","medium-open","1000","False","mono","False","32","no","black","no","yes","1080","58","Look at the screen and listen carefully. press any key to continue","True","mono","black","32","None","None","w","legacy","1","wolf","37","37","lake","C:/Users/yarbus/Desktop/Team Cat/visual-word-paradigm/trials/subject-1.csv","2000","legacy","Melodramatic Milgram","4.0.13","False","mono","black","32","None","380","Pause. Look at the fixation dot in order to continue.","30000","-480","480","-480","480","270","270","-270","-270","1000","0","2","legacy","At the lake, the girl caught a big fish.","500","1024","2","3.191999912261963","48000","-16","C:\Users\yarbus\AppData\Local\Temp\tmpg7y5i0u_.opensesame_pool\58_fish.ogg","blood","fish","boxtruck","mouse","blood","fish","boxtruck","mouse","experiment","fish","1","odd","2396","BR","516918.0","C:\Users\yarbus\Desktop\Team Cat\visual-word-paradigm\temp","6176","127419","510834","434","510834","596","127419","510769","519401","NA","516870","557","511871","510805","510581","NA","513047","131465","510792","471","experiment-visual-word-paradigm","518918.0","caught","1467","wolf.mp4","1920"
"33_movie.ogg","white","legacy","True","C:\Users\yarbus\Desktop\Team Cat\visual-word-paradigm\temp","legacy","legacy","motion","C:\Users\yarbus\Desktop\Team Cat\visual-word-paradigm\config.yml","0","0","38","0","38","0","0","38","38","0","38","0","38","38","38","0","38","0","38","0","13.037821075624525","50","Fri Aug  9 14:34:52 2024","20","The main experiment item","False","4220.0000286102295","131464","pygame-experiment-visual-world-paradigm.osexp","C:\Users\yarbus\Desktop\Team Cat\visual-word-paradigm","black","0","0","medium-open","1000","False","mono","False","32","no","black","no","yes","1080","33","Look at the screen and listen carefully. press any key to continue","True","mono","black","32","None","None","w","legacy","1","wolf","38","38","cinema","C:/Users/yarbus/Desktop/Team Cat/visual-word-paradigm/trials/subject-1.csv","2000","legacy","Melodramatic Milgram","4.0.13","False","mono","black","32","None","380","Pause. Look at the fixation dot in order to continue.","30000","-480","480","-480","480","270","270","-270","-270","1000","0","2","legacy","At the cinema, the girl watched a movie.","500","1024","2","3.7200000286102295","48000","-16","C:\Users\yarbus\AppData\Local\Temp\tmpg7y5i0u_.opensesame_pool\33_movie.ogg","movie","button","pants","battleship","movie","button","pants","battleship","experiment","movie","1","odd","2212","BL","526260.0","C:\Users\yarbus\Desktop\Team Cat\visual-word-paradigm\temp","6176","127419","519732","434","519732","596","127419","519660","529448","NA","526222","557","520779","519696","519414","NA","521891","131465","519688","471","experiment-visual-word-paradigm","528260.0","watched","1562","wolf.mp4","1920"
"56_marshmallows.ogg","white","legacy","True","C:\Users\yarbus\Desktop\Team Cat\visual-word-paradigm\temp","legacy","legacy","motion","C:\Users\yarbus\Desktop\Team Cat\visual-word-paradigm\config.yml","0","0","39","0","39","0","0","39","39","0","39","0","39","39","39","0","39","0","39","0","8.857955637730447","50","Fri Aug  9 14:34:52 2024","20","The main experiment item","False","4507.999897003174","131464","pygame-experiment-visual-world-paradigm.osexp","C:\Users\yarbus\Desktop\Team Cat\visual-word-paradigm","black","0","0","medium-open","1000","False","mono","False","32","no","black","no","yes","1080","56","Look at the screen and listen carefully. press any key to continue","True","mono","black","32","None","None","w","legacy","1","wolf","39","39","campfire","C:/Users/yarbus/Desktop/Team Cat/visual-word-paradigm/trials/subject-1.csv","2000","legacy","Melodramatic Milgram","4.0.13","False","mono","black","32","None","380","Pause. Look at the fixation dot in order to continue.","30000","-480","480","-480","480","270","270","-270","-270","1000","0","2","legacy","At the campfire, the girl roasted marshmallows.","500","1024","2","4.007999897003174","48000","-16","C:\Users\yarbus\AppData\Local\Temp\tmpg7y5i0u_.opensesame_pool\56_marshmallows.ogg","card","marshmallow","dice","mouse","card","marshmallow","dice","mouse","experiment","marshmallow","1","odd","2892","BR","536540.0","C:\Users\yarbus\Desktop\Team Cat\visual-word-paradigm\temp","6176","127419","529809","434","529809","596","127419","529733","539420","NA","536491","557","530842","529774","529461","NA","531893","131465","529760","471","experiment-visual-word-paradigm","538540.0","roasted","2167","wolf.mp4","1920"
"24_cake.ogg","white","legacy","True","C:\Users\yarbus\Desktop\Team Cat\visual-word-paradigm\temp","legacy","legacy","static","C:\Users\yarbus\Desktop\Team Cat\visual-word-paradigm\config.yml","0","0","40","0","40","0","0","40","40","0","40","0","40","40","40","0","40","0","40","0","30.42349849704991","50","Fri Aug  9 14:34:52 2024","20","The main experiment item","False","3548.0000972747803","131464","pygame-experiment-visual-world-paradigm.osexp","C:\Users\yarbus\Desktop\Team Cat\visual-word-paradigm","black","0","0","medium-open","1000","False","mono","False","32","no","black","no","yes","1080","24","Look at the screen and listen carefully. press any key to continue","True","mono","black","32","None","None","w","legacy","1","wolf","40","40","kitchen","C:/Users/yarbus/Desktop/Team Cat/visual-word-paradigm/trials/subject-1.csv","2000","legacy","Melodramatic Milgram","4.0.13","False","mono","black","32","None","380","Pause. Look at the fixation dot in order to continue.","30000","-480","480","-480","480","270","270","-270","-270","1000","0","2","legacy","In the kitchen, the girl baked a cake.","500","1024","2","3.0480000972747803","48000","-16","C:\Users\yarbus\AppData\Local\Temp\tmpg7y5i0u_.opensesame_pool\24_cake.ogg","button","cello","seashells","cake","button","cello","seashells","cake","experiment","cake","1","odd","2253","TR","545509.0","C:\Users\yarbus\Desktop\Team Cat\visual-word-paradigm\temp","6176","127419","539751","434","539751","596","127419","539679","547509","NA","545458","557","540792","539713","539433","NA","541850","131465","539702","471","experiment-visual-word-paradigm","547509.0","baked","1409","wolf.mp4","1920"
"38_plants.ogg","white","legacy","True","C:\Users\yarbus\Desktop\Team Cat\visual-word-paradigm\temp","legacy","legacy","motion","C:\Users\yarbus\Desktop\Team Cat\visual-word-paradigm\config.yml","0","0","41","0","41","0","0","41","41","0","41","0","41","41","41","0","41","0","41","0","44.588975241869015","50","Fri Aug  9 14:34:52 2024","20","The main experiment item","False","4099.999904632568","131464","pygame-experiment-visual-world-paradigm.osexp","C:\Users\yarbus\Desktop\Team Cat\visual-word-paradigm","black","0","0","medium-open","1000","False","mono","False","32","no","black","no","yes","1080","38","Look at the screen and listen carefully. press any key to continue","True","mono","black","32","None","None","w","legacy","1","wolf","41","41","backyard","C:/Users/yarbus/Desktop/Team Cat/visual-word-paradigm/trials/subject-1.csv","2000","legacy","Melodramatic Milgram","4.0.13","False","mono","black","32","None","380","Pause. Look at the fixation dot in order to continue.","30000","-480","480","-480","480","270","270","-270","-270","1000","0","2","legacy","In the backyard, the girl watered the plants.","500","1024","2","3.5999999046325684","48000","-16","C:\Users\yarbus\AppData\Local\Temp\tmpg7y5i0u_.opensesame_pool\38_plants.ogg","plants","paintcan","brick","calendar","plants","paintcan","brick","calendar","experiment","plants","1","odd","2387","BL","554221.0","C:\Users\yarbus\Desktop\Team Cat\visual-word-paradigm\temp","6176","127419","547772","434","547772","596","127419","547711","556221","NA","554178","557","548801","547745","547512","NA","549938","131465","547737","471","experiment-visual-word-paradigm","556221.0","watered","1510","wolf.mp4","1920"
"60_tree.ogg","white","legacy","True","C:\Users\yarbus\Desktop\Team Cat\visual-word-paradigm\temp","legacy","legacy","motion","C:\Users\yarbus\Desktop\Team Cat\visual-word-paradigm\config.yml","0","0","42","0","42","0","0","42","42","0","42","0","42","42","42","0","42","0","42","0","46.32285827450623","50","Fri Aug  9 14:34:52 2024","20","The main experiment item","False","4267.999887466431","131464","pygame-experiment-visual-world-paradigm.osexp","C:\Users\yarbus\Desktop\Team Cat\visual-word-paradigm","black","0","0","medium-open","1000","False","mono","False","32","no","black","no","yes","1080","60","Look at the screen and listen carefully. press any key to continue","True","mono","black","32","None","None","w","legacy","1","wolf","42","42","forest","C:/Users/yarbus/Desktop/Team Cat/visual-word-paradigm/trials/subject-1.csv","2000","legacy","Melodramatic Milgram","4.0.13","False","mono","black","32","None","380","Pause. Look at the fixation dot in order to continue.","30000","-480","480","-480","480","270","270","-270","-270","1000","0","2","legacy","In the forest, the girl cut down a tree.","500","1024","2","3.7679998874664307","48000","-16","C:\Users\yarbus\AppData\Local\Temp\tmpg7y5i0u_.opensesame_pool\60_tree.ogg","bookshelf","tree","calculator","cactus","bookshelf","tree","calculator","cactus","experiment","tree","1","odd","2469","BR","563099.0","C:\Users\yarbus\Desktop\Team Cat\visual-word-paradigm\temp","6176","127419","556454","434","556454","596","127419","556395","565099","NA","563059","557","557495","556429","556234","NA","558664","131465","556418","471","experiment-visual-word-paradigm","565099.0","cut","1377","wolf.mp4","1920"
"11_chicken.ogg","white","legacy","True","C:\Users\yarbus\Desktop\Team Cat\visual-word-paradigm\temp","legacy","legacy","static","C:\Users\yarbus\Desktop\Team Cat\visual-word-paradigm\config.yml","0","0","43","0","43","0","0","43","43","0","43","0","43","43","43","0","43","0","43","0","45.49028149220447","50","Fri Aug  9 14:34:52 2024","20","The main experiment item","False","3548.0000972747803","131464","pygame-experiment-visual-world-paradigm.osexp","C:\Users\yarbus\Desktop\Team Cat\visual-word-paradigm","black","0","0","medium-open","1000","False","mono","False","32","no","black","no","yes","1080","11","Look at the screen and listen carefully. press any key to continue","True","mono","black","32","None","None","w","legacy","1","wolf","43","43","farm","C:/Users/yarbus/Desktop/Team Cat/visual-word-paradigm/trials/subject-1.csv","2000","legacy","Melodramatic Milgram","4.0.13","False","mono","black","32","None","380","Pause. Look at the fixation dot in order to continue.","30000","-480","480","-480","480","270","270","-270","-270","1000","0","2","legacy","At the farm, the girl fed the chicken. ","500","1024","2","3.0480000972747803","48000","-16","C:\Users\yarbus\AppData\Local\Temp\tmpg7y5i0u_.opensesame_pool\11_chicken.ogg","shoppingcart","battery","chicken","basketball","shoppingcart","battery","chicken","basketball","experiment","chicken","1","odd","2193","TL","571118.0","C:\Users\yarbus\Desktop\Team Cat\visual-word-paradigm\temp","6176","127419","565358","434","565358","596","127419","565299","574174","NA","571071","557","566386","565331","565102","NA","567464","131465","565322","471","experiment-visual-word-paradigm","573118.0","fed","1607","wolf.mp4","1920"
"32_flowers.ogg","white","legacy","True","C:\Users\yarbus\Desktop\Team Cat\visual-word-paradigm\temp","legacy","legacy","static","C:\Users\yarbus\Desktop\Team Cat\visual-word-paradigm\config.yml","0","0","44","0","44","0","0","44","44","0","44","0","44","44","44","0","44","0","44","0","38.42628017594209","50","Fri Aug  9 14:34:52 2024","20","The main experiment item","False","3691.999912261963","131464","pygame-experiment-visual-world-paradigm.osexp","C:\Users\yarbus\Desktop\Team Cat\visual-word-paradigm","black","0","0","medium-open","1000","False","mono","False","32","no","black","no","yes","1080","32","Look at the screen and listen carefully. press any key to continue","True","mono","black","32","None","None","w","legacy","1","wolf","44","44","garden","C:/Users/yarbus/Desktop/Team Cat/visual-word-paradigm/trials/subject-1.csv","2000","legacy","Melodramatic Milgram","4.0.13","False","mono","black","32","None","380","Pause. Look at the fixation dot in order to continue.","30000","-480","480","-480","480","270","270","-270","-270","1000","0","2","legacy","In the garden, the girl planted flowers.","500","1024","2","3.191999912261963","48000","-16","C:\Users\yarbus\AppData\Local\Temp\tmpg7y5i0u_.opensesame_pool\32_flowers.ogg","nailclipper","beer","baggage","flowers","nailclipper","beer","baggage","flowers","experiment","flowers","1","odd","2155","TR","580481.0","C:\Users\yarbus\Desktop\Team Cat\visual-word-paradigm\temp","6176","127419","574539","434","574540","596","127419","574463","582916","NA","580438","557","575611","574491","574177","NA","576692","131465","574489","471","experiment-visual-word-paradigm","582481.0","planted","1771","wolf.mp4","1920"
"59_documents.ogg","white","legacy","True","C:\Users\yarbus\Desktop\Team Cat\visual-word-paradigm\temp","legacy","legacy","motion","C:\Users\yarbus\Desktop\Team Cat\visual-word-paradigm\config.yml","0","0","45","0","45","0","0","45","45","0","45","0","45","45","45","0","45","0","45","0","43.561298823611786","50","Fri Aug  9 14:34:52 2024","20","The main experiment item","False","4243.99995803833","131464","pygame-experiment-visual-world-paradigm.osexp","C:\Users\yarbus\Desktop\Team Cat\visual-word-paradigm","black","0","0","medium-open","1000","False","mono","False","32","no","black","no","yes","1080","59","Look at the screen and listen carefully. press any key to continue","True","mono","black","32","None","None","w","legacy","1","wolf","45","45","office","C:/Users/yarbus/Desktop/Team Cat/visual-word-paradigm/trials/subject-1.csv","2000","legacy","Melodramatic Milgram","4.0.13","False","mono","black","32","None","380","Pause. Look at the fixation dot in order to continue.","30000","-480","480","-480","480","270","270","-270","-270","1000","0","2","legacy","In the office, the girl printed documents. ","500","1024","2","3.74399995803833","48000","-16","C:\Users\yarbus\AppData\Local\Temp\tmpg7y5i0u_.opensesame_pool\59_documents.ogg","brainmodel","documents","weights","fishing","brainmodel","documents","weights","fishing","experiment","documents","1","odd","2487","BR","589707.0","C:\Users\yarbus\Desktop\Team Cat\visual-word-paradigm\temp","6176","127419","583215","434","583215","596","127419","583147","591707","NA","589663","557","584248","583178","582929","NA","585298","131465","583170","471","experiment-visual-word-paradigm","591707.0","printed","1575","wolf.mp4","1920"
"03_sandwich.ogg","white","legacy","True","C:\Users\yarbus\Desktop\Team Cat\visual-word-paradigm\temp","legacy","legacy","static","C:\Users\yarbus\Desktop\Team Cat\visual-word-paradigm\config.yml","0","0","46","0","46","0","0","46","46","0","46","0","46","46","46","0","46","0","46","0","45.35067118356679","50","Fri Aug  9 14:34:52 2024","20","The main experiment item","False","4099.999904632568","131464","pygame-experiment-visual-world-paradigm.osexp","C:\Users\yarbus\Desktop\Team Cat\visual-word-paradigm","black","0","0","medium-open","1000","False","mono","False","32","no","black","no","yes","1080","3","Look at the screen and listen carefully. press any key to continue","True","mono","black","32","None","None","w","legacy","1","wolf","46","46","dinner time","C:/Users/yarbus/Desktop/Team Cat/visual-word-paradigm/trials/subject-1.csv","2000","legacy","Melodramatic Milgram","4.0.13","False","mono","black","32","None","380","Pause. Look at the fixation dot in order to continue.","30000","-480","480","-480","480","270","270","-270","-270","1000","0","2","legacy","At dinner time, the girl ate a sandwich.","500","1024","2","3.5999999046325684","48000","-16","C:\Users\yarbus\AppData\Local\Temp\tmpg7y5i0u_.opensesame_pool\03_sandwich.ogg","bulldozer","belt","sandwich","patioumbrella","bulldozer","belt","sandwich","patioumbrella","experiment","sandwich","1","odd","2711","TL","598250.0","C:\Users\yarbus\Desktop\Team Cat\visual-word-paradigm\temp","6176","127419","591952","434","591952","596","127419","591886","600250","NA","598205","557","592991","591919","591708","NA","594049","131465","591909","471","experiment-visual-word-paradigm","600250.0","ate","2287","wolf.mp4","1920"
"50_cactus.ogg","white","legacy","True","C:\Users\yarbus\Desktop\Team Cat\visual-word-paradigm\temp","legacy","legacy","motion","C:\Users\yarbus\Desktop\Team Cat\visual-word-paradigm\config.yml","0","0","47","0","47","0","0","47","47","0","47","0","47","47","47","0","47","0","47","0","46.466144330684415","50","Fri Aug  9 14:34:52 2024","20","The main experiment item","False","5179.999828338623","131464","pygame-experiment-visual-world-paradigm.osexp","C:\Users\yarbus\Desktop\Team Cat\visual-word-paradigm","black","0","0","medium-open","1000","False","mono","False","32","no","black","no","yes","1080","50","Look at the screen and listen carefully. press any key to continue","True","mono","black","32","None","None","w","legacy","1","wolf","47","47","botanical garden","C:/Users/yarbus/Desktop/Team Cat/visual-word-paradigm/trials/subject-1.csv","2000","legacy","Melodramatic Milgram","4.0.13","False","mono","black","32","None","380","Pause. Look at the fixation dot in order to continue.","30000","-480","480","-480","480","270","270","-270","-270","1000","0","2","legacy","In the botanical garden, the girl got stung by a cactus.","500","1024","2","4.679999828338623","48000","-16","C:\Users\yarbus\AppData\Local\Temp\tmpg7y5i0u_.opensesame_pool\50_cactus.ogg","card","cactus","bear","pacifier","card","cactus","bear","pacifier","experiment","cactus","1","odd","3287","BR","607967.0","C:\Users\yarbus\Desktop\Team Cat\visual-word-paradigm\temp","6176","127419","600522","434","600522","596","127419","600452","611519","NA","607919","557","601561","600490","600251","NA","602635","131465","600479","471","experiment-visual-word-paradigm","609967.0","stung","2326","wolf.mp4","1920"
"29_ferriswheel.ogg","white","legacy","True","C:\Users\yarbus\Desktop\Team Cat\visual-word-paradigm\temp","legacy","legacy","static","C:\Users\yarbus\Desktop\Team Cat\visual-word-paradigm\config.yml","0","0","48","0","48","0","0","48","48","0","48","0","48","48","48","0","48","0","48","0","49.134767193912836","50","Fri Aug  9 14:34:52 2024","20","The main experiment item","False","4843.999862670898","131464","pygame-experiment-visual-world-paradigm.osexp","C:\Users\yarbus\Desktop\Team Cat\visual-word-paradigm","black","0","0","medium-open","1000","False","mono","False","32","no","black","no","yes","1080","29","Look at the screen and listen carefully. press any key to continue","True","mono","black","32","None","None","w","legacy","1","wolf","48","48","carnival","C:/Users/yarbus/Desktop/Team Cat/visual-word-paradigm/trials/subject-1.csv","2000","legacy","Melodramatic Milgram","4.0.13","False","mono","black","32","None","380","Pause. Look at the fixation dot in order to continue.","30000","-480","480","-480","480","270","270","-270","-270","1000","0","2","legacy","At the carnival, the girl rode on a Ferris wheel.","500","1024","2","4.343999862670898","48000","-16","C:\Users\yarbus\AppData\Local\Temp\tmpg7y5i0u_.opensesame_pool\29_ferriswheel.ogg","vegetables","button","paperclip","ferriswheel","vegetables","button","paperclip","ferriswheel","experiment","ferriswheel","1","odd","3120","TR","618998.0","C:\Users\yarbus\Desktop\Team Cat\visual-word-paradigm\temp","6176","127419","611928","434","611928","596","127419","611859","621016","NA","618950","557","612976","611890","611531","NA","614044","131465","611882","471","experiment-visual-word-paradigm","620998.0","rode","1662","wolf.mp4","1920"
"13_dice.ogg","white","legacy","True","C:\Users\yarbus\Desktop\Team Cat\visual-word-paradigm\temp","legacy","legacy","static","C:\Users\yarbus\Desktop\Team Cat\visual-word-paradigm\config.yml","0","0","49","0","49","0","0","49","49","0","49","0","49","49","49","0","49","0","49","0","1.9838943520258356","50","Fri Aug  9 14:34:52 2024","20","The main experiment item","False","3644.0000534057617","131464","pygame-experiment-visual-world-paradigm.osexp","C:\Users\yarbus\Desktop\Team Cat\visual-word-paradigm","black","0","0","medium-open","1000","False","mono","False","32","no","black","no","yes","1080","13","Look at the screen and listen carefully. press any key to continue","True","mono","black","32","None","None","w","legacy","1","wolf","49","49","casino","C:/Users/yarbus/Desktop/Team Cat/visual-word-paradigm/trials/subject-1.csv","2000","legacy","Melodramatic Milgram","4.0.13","False","mono","black","32","None","380","Pause. Look at the fixation dot in order to continue.","30000","-480","480","-480","480","270","270","-270","-270","1000","0","2","legacy","At the casino, the girl threw a dice.","500","1024","2","3.1440000534057617","48000","-16","C:\Users\yarbus\AppData\Local\Temp\tmpg7y5i0u_.opensesame_pool\13_dice.ogg","moon","calendar","dice","injection","moon","calendar","dice","injection","experiment","dice","1","odd","2221","TL","627135.0","C:\Users\yarbus\Desktop\Team Cat\visual-word-paradigm\temp","6176","127419","621262","434","621262","596","127419","621211","629317","NA","627097","557","622307","621235","621028","NA","623377","131465","621234","471","experiment-visual-word-paradigm","629135.0","threw","1621","wolf.mp4","1920"
"54_cd.ogg","white","legacy","True","C:\Users\yarbus\Desktop\Team Cat\visual-word-paradigm\temp","legacy","legacy","motion","C:\Users\yarbus\Desktop\Team Cat\visual-word-paradigm\config.yml","0","0","50","0","50","0","0","50","50","0","50","0","50","50","50","0","50","0","50","0","34.55211212067937","50","Fri Aug  9 14:34:52 2024","20","The main experiment item","False","4099.999904632568","131464","pygame-experiment-visual-world-paradigm.osexp","C:\Users\yarbus\Desktop\Team Cat\visual-word-paradigm","black","0","0","medium-open","1000","False","mono","False","32","no","black","no","yes","1080","54","Look at the screen and listen carefully. press any key to continue","True","mono","black","32","None","None","w","legacy","1","wolf","50","50","car","C:/Users/yarbus/Desktop/Team Cat/visual-word-paradigm/trials/subject-1.csv","2000","legacy","Melodramatic Milgram","4.0.13","False","mono","black","32","None","380","Pause. Look at the fixation dot in order to continue.","30000","-480","480","-480","480","270","270","-270","-270","1000","0","2","legacy","In the car, the girl listened to a CD.","500","1024","2","3.5999999046325684","48000","-16","C:\Users\yarbus\AppData\Local\Temp\tmpg7y5i0u_.opensesame_pool\54_cd.ogg","moon","cd","ceilingfan","brick","moon","cd","ceilingfan","brick","experiment","cd","1","odd","2643","BR","635909.0","C:\Users\yarbus\Desktop\Team Cat\visual-word-paradigm\temp","6176","127419","629590","434","629590","596","127419","629527","637921","NA","635869","557","630637","629563","629329","NA","631700","131465","629553","471","experiment-visual-word-paradigm","637909.0","listened","1529","wolf.mp4","1920"
"62_mathproblems.ogg","white","legacy","True","C:\Users\yarbus\Desktop\Team Cat\visual-word-paradigm\temp","legacy","legacy","motion","C:\Users\yarbus\Desktop\Team Cat\visual-word-paradigm\config.yml","0","0","51","0","51","0","0","51","51","0","51","0","51","51","51","0","51","0","51","0","35.47987990960515","50","Fri Aug  9 14:34:52 2024","20","The main experiment item","False","4196.000099182129","131464","pygame-experiment-visual-world-paradigm.osexp","C:\Users\yarbus\Desktop\Team Cat\visual-word-paradigm","black","0","0","medium-open","1000","False","mono","False","32","no","black","no","yes","1080","62","Look at the screen and listen carefully. press any key to continue","True","mono","black","32","None","None","w","legacy","1","wolf","51","51","classroom","C:/Users/yarbus/Desktop/Team Cat/visual-word-paradigm/trials/subject-1.csv","2000","legacy","Melodramatic Milgram","4.0.13","False","mono","black","32","None","380","Pause. Look at the fixation dot in order to continue.","30000","-480","480","-480","480","270","270","-270","-270","1000","0","2","legacy","In the classroom, the girl solved math problems.","500","1024","2","3.696000099182129","48000","-16","C:\Users\yarbus\AppData\Local\Temp\tmpg7y5i0u_.opensesame_pool\62_mathproblems.ogg","kite","math","bear","cookie","kite","math","bear","cookie","experiment","math","1","odd","2397","BR","644655.0","C:\Users\yarbus\Desktop\Team Cat\visual-word-paradigm\temp","6176","127419","638171","434","638171","596","127419","638110","646655","NA","644616","557","639203","638144","637922","NA","640328","131465","638134","471","experiment-visual-word-paradigm","646655.0","solved","1801","wolf.mp4","1920"
"12_egg.ogg","white","legacy","True","C:\Users\yarbus\Desktop\Team Cat\visual-word-paradigm\temp","legacy","legacy","static","C:\Users\yarbus\Desktop\Team Cat\visual-word-paradigm\config.yml","0","0","52","0","52","0","0","52","52","0","52","0","52","52","52","0","52","0","52","0","17.097985397116176","50","Fri Aug  9 14:34:52 2024","20","The main experiment item","False","3763.9999389648438","131464","pygame-experiment-visual-world-paradigm.osexp","C:\Users\yarbus\Desktop\Team Cat\visual-word-paradigm","black","0","0","medium-open","1000","False","mono","False","32","no","black","no","yes","1080","12","Look at the screen and listen carefully. press any key to continue","True","mono","black","32","None","None","w","legacy","1","wolf","52","52","farm","C:/Users/yarbus/Desktop/Team Cat/visual-word-paradigm/trials/subject-1.csv","2000","legacy","Melodramatic Milgram","4.0.13","False","mono","black","32","None","380","Pause. Look at the fixation dot in order to continue.","30000","-480","480","-480","480","270","270","-270","-270","1000","0","2","legacy","At the farm, the girl picked the egg. ","500","1024","2","3.2639999389648438","48000","-16","C:\Users\yarbus\AppData\Local\Temp\tmpg7y5i0u_.opensesame_pool\12_egg.ogg","battery","videogame","egg","oven","battery","videogame","egg","oven","experiment","egg","1","odd","2263","TL","652858.0","C:\Users\yarbus\Desktop\Team Cat\visual-word-paradigm\temp","6176","127419","646887","434","646887","596","127419","646825","654961","NA","652815","557","647929","646856","646666","NA","648993","131465","646848","471","experiment-visual-word-paradigm","654858.0","picked","1380","wolf.mp4","1920"
"41_drinks.ogg","white","legacy","True","C:\Users\yarbus\Desktop\Team Cat\visual-word-paradigm\temp","legacy","legacy","motion","C:\Users\yarbus\Desktop\Team Cat\visual-word-paradigm\config.yml","0","0","53","0","53","0","0","53","53","0","53","0","53","53","53","0","53","0","53","0","38.16720120731944","50","Fri Aug  9 14:34:52 2024","20","The main experiment item","False","4075.999975204468","131464","pygame-experiment-visual-world-paradigm.osexp","C:\Users\yarbus\Desktop\Team Cat\visual-word-paradigm","black","0","0","medium-open","1000","False","mono","False","32","no","black","no","yes","1080","41","Look at the screen and listen carefully. press any key to continue","True","mono","black","32","None","None","w","legacy","1","wolf","53","53","party","C:/Users/yarbus/Desktop/Team Cat/visual-word-paradigm/trials/subject-1.csv","2000","legacy","Melodramatic Milgram","4.0.13","False","mono","black","32","None","380","Pause. Look at the fixation dot in order to continue.","30000","-480","480","-480","480","270","270","-270","-270","1000","0","2","legacy","At the party, the girl served drinks to the guests.","500","1024","2","3.5759999752044678","48000","-16","C:\Users\yarbus\AppData\Local\Temp\tmpg7y5i0u_.opensesame_pool\41_drinks.ogg","drinks","nailclipper","cats","shoppingcart","drinks","nailclipper","cats","shoppingcart","experiment","drinks","1","odd","2115","BL","661562.0","C:\Users\yarbus\Desktop\Team Cat\visual-word-paradigm\temp","6176","127419","655210","434","655210","596","127419","655139","663574","NA","661526","557","656254","655173","654964","NA","657366","131465","655165","471","experiment-visual-word-paradigm","663562.0","served","1333","wolf.mp4","1920"
"46_badminton.ogg","white","legacy","True","C:\Users\yarbus\Desktop\Team Cat\visual-word-paradigm\temp","legacy","legacy","motion","C:\Users\yarbus\Desktop\Team Cat\visual-word-paradigm\config.yml","0","0","54","0","54","0","0","54","54","0","54","0","54","54","54","0","54","0","54","0","29.810687439238965","50","Fri Aug  9 14:34:52 2024","20","The main experiment item","False","3931.999921798706","131464","pygame-experiment-visual-world-paradigm.osexp","C:\Users\yarbus\Desktop\Team Cat\visual-word-paradigm","black","0","0","medium-open","1000","False","mono","False","32","no","black","no","yes","1080","46","Look at the screen and listen carefully. press any key to continue","True","mono","black","32","None","None","w","legacy","1","wolf","54","54","stadium","C:/Users/yarbus/Desktop/Team Cat/visual-word-paradigm/trials/subject-1.csv","2000","legacy","Melodramatic Milgram","4.0.13","False","mono","black","32","None","380","Pause. Look at the fixation dot in order to continue.","30000","-480","480","-480","480","270","270","-270","-270","1000","0","2","legacy","At the stadium, the girl played badminton.","500","1024","2","3.431999921798706","48000","-16","C:\Users\yarbus\AppData\Local\Temp\tmpg7y5i0u_.opensesame_pool\46_badminton.ogg","badminton","cactus","ceilingfan","dishes","badminton","cactus","ceilingfan","dishes","experiment","badminton","1","odd","2416","BL","670060.0","C:\Users\yarbus\Desktop\Team Cat\visual-word-paradigm\temp","6176","127419","663845","434","663845","596","127419","663790","672156","NA","670015","557","664888","663816","663587","NA","665961","131465","663813","471","experiment-visual-word-paradigm","672060.0","played","1705","wolf.mp4","1920"
"06_croissant.ogg","white","legacy","True","C:\Users\yarbus\Desktop\Team Cat\visual-word-paradigm\temp","legacy","legacy","static","C:\Users\yarbus\Desktop\Team Cat\visual-word-paradigm\config.yml","0","0","55","0","55","0","0","55","55","0","55","0","55","55","55","0","55","0","55","0","20.287641637213536","50","Fri Aug  9 14:34:52 2024","20","The main experiment item","False","4075.999975204468","131464","pygame-experiment-visual-world-paradigm.osexp","C:\Users\yarbus\Desktop\Team Cat\visual-word-paradigm","black","0","0","medium-open","1000","False","mono","False","32","no","black","no","yes","1080","6","Look at the screen and listen carefully. press any key to continue","True","mono","black","32","None","None","w","legacy","1","wolf","55","55","breakfast","C:/Users/yarbus/Desktop/Team Cat/visual-word-paradigm/trials/subject-1.csv","2000","legacy","Melodramatic Milgram","4.0.13","False","mono","black","32","None","380","Pause. Look at the fixation dot in order to continue.","30000","-480","480","-480","480","270","270","-270","-270","1000","0","2","legacy","At breakfast, the girl ate a croissant. ","500","1024","2","3.5759999752044678","48000","-16","C:\Users\yarbus\AppData\Local\Temp\tmpg7y5i0u_.opensesame_pool\06_croissant.ogg","dance","makeup","croissant","duck","dance","makeup","croissant","duck","experiment","croissant","1","odd","2576","TL","678752.0","C:\Users\yarbus\Desktop\Team Cat\visual-word-paradigm\temp","6176","127419","672473","434","672473","596","127419","672373","680752","NA","678716","557","673510","672439","672169","NA","674580","131465","672400","471","experiment-visual-word-paradigm","680752.0","ate","1876","wolf.mp4","1920"
"07_clothes.ogg","white","legacy","True","C:\Users\yarbus\Desktop\Team Cat\visual-word-paradigm\temp","legacy","legacy","static","C:\Users\yarbus\Desktop\Team Cat\visual-word-paradigm\config.yml","0","0","56","0","56","0","0","56","56","0","56","0","56","56","56","0","56","0","56","0","46.86731271494031","50","Fri Aug  9 14:34:52 2024","20","The main experiment item","False","4388.000011444092","131464","pygame-experiment-visual-world-paradigm.osexp","C:\Users\yarbus\Desktop\Team Cat\visual-word-paradigm","black","0","0","medium-open","1000","False","mono","False","32","no","black","no","yes","1080","7","Look at the screen and listen carefully. press any key to continue","True","mono","black","32","None","None","w","legacy","1","wolf","56","56","shopping mall","C:/Users/yarbus/Desktop/Team Cat/visual-word-paradigm/trials/subject-1.csv","2000","legacy","Melodramatic Milgram","4.0.13","False","mono","black","32","None","380","Pause. Look at the fixation dot in order to continue.","30000","-480","480","-480","480","270","270","-270","-270","1000","0","2","legacy","In the shopping mall, the girl shopped for clothes.","500","1024","2","3.888000011444092","48000","-16","C:\Users\yarbus\AppData\Local\Temp\tmpg7y5i0u_.opensesame_pool\07_clothes.ogg","CD","flowers","clothes","cellphone","CD","flowers","clothes","cellphone","experiment","clothes","1","odd","2579","TL","687613.0","C:\Users\yarbus\Desktop\Team Cat\visual-word-paradigm\temp","6176","127419","680992","434","680993","596","127419","680927","689613","NA","687572","557","682061","680962","680754","NA","683123","131465","680950","471","experiment-visual-word-paradigm","689613.0","shopped","1703","wolf.mp4","1920"
"37_vegetables.ogg","white","legacy","True","C:\Users\yarbus\Desktop\Team Cat\visual-word-paradigm\temp","legacy","legacy","motion","C:\Users\yarbus\Desktop\Team Cat\visual-word-paradigm\config.yml","0","0","57","0","57","0","0","57","57","0","57","0","57","57","57","0","57","0","57","0","40.34316878977161","50","Fri Aug  9 14:34:52 2024","20","The main experiment item","False","4003.999948501587","131464","pygame-experiment-visual-world-paradigm.osexp","C:\Users\yarbus\Desktop\Team Cat\visual-word-paradigm","black","0","0","medium-open","1000","False","mono","False","32","no","black","no","yes","1080","37","Look at the screen and listen carefully. press any key to continue","True","mono","black","32","None","None","w","legacy","1","wolf","57","57","market","C:/Users/yarbus/Desktop/Team Cat/visual-word-paradigm/trials/subject-1.csv","2000","legacy","Melodramatic Milgram","4.0.13","False","mono","black","32","None","380","Pause. Look at the fixation dot in order to continue.","30000","-480","480","-480","480","270","270","-270","-270","1000","0","2","legacy","At the market, the girl bought fresh vegetables.","500","1024","2","3.503999948501587","48000","-16","C:\Users\yarbus\AppData\Local\Temp\tmpg7y5i0u_.opensesame_pool\37_vegetables.ogg","vegetables","pacifier","duck","bicycle","vegetables","pacifier","duck","bicycle","experiment","vegetables","1","odd","2344","BL","696135.0","C:\Users\yarbus\Desktop\Team Cat\visual-word-paradigm\temp","6176","127419","689885","434","689885","596","127419","689817","698135","NA","696092","557","690925","689848","689627","NA","692002","131465","689839","471","experiment-visual-word-paradigm","698135.0","bought","1606","wolf.mp4","1920"
